item,item_cond,sound,corr_ans,group,block_id,listname,rating_for,position,trials.thisRepN,trials.thisTrialN,trials.thisN,trials.thisIndex,run_block_type.thisRepN,run_block_type.thisTrialN,run_block_type.thisN,run_block_type.thisIndex,routine.thisRepN,routine.thisTrialN,routine.thisN,routine.thisIndex,rating_trials.thisRepN,rating_trials.thisTrialN,rating_trials.thisN,rating_trials.thisIndex,key_resp_1.keys,key_resp_1.rt,key_resp_2.keys,key_resp_2.corr,key_resp_2.rt,rating_1.response,rating_1.rt,participant,session,date,expName,psychopyVersion,frameRate,
,,,,,,,,,,,,,,,,,,,,,,,,,space,11.920060110000009,,,,,,100,001,2019_Mar_12_1148,test_run,3.0.6,60.00195474369203,
165,ENW,ENW_75_foarskining_150219.wav,n,c ,,,,,0,0,0,164,,,,,,,,,,,,,,,n,1,6.069156931999942,,,100,001,2019_Mar_12_1148,test_run,3.0.6,60.00195474369203,
86,EFW,EFW_56_mormor_070319.wav,j,c ,,,,,0,1,1,85,,,,,,,,,,,,,,,j,1,2.1189858909999657,,,100,001,2019_Mar_12_1148,test_run,3.0.6,60.00195474369203,
154,ENW,ENW_64_havskvare_150219.wav,n,c ,,,,,0,2,2,153,,,,,,,,,,,,,,,n,1,3.202726848999987,,,100,001,2019_Mar_12_1148,test_run,3.0.6,60.00195474369203,
29,ECW,ECW_29_mejerier_070319.wav,j,c ,,,,,0,3,3,28,,,,,,,,,,,,,,,j,1,1.9190911620000861,,,100,001,2019_Mar_12_1148,test_run,3.0.6,60.00195474369203,
94,ENW,ENW_4_kyllfaren_150219.wav,n,c ,,,,,0,4,4,93,,,,,,,,,,,,,,,n,1,4.919501684000011,,,100,001,2019_Mar_12_1148,test_run,3.0.6,60.00195474369203,
173,ENW,ENW_83_fyrskovar_150219.wav,n,c ,,,,,0,5,5,172,,,,,,,,,,,,,,,n,1,4.235685592999971,,,100,001,2019_Mar_12_1148,test_run,3.0.6,60.00195474369203,
26,ECW,ECW_26_kroenikoeren_070319.wav,j,c ,,,,,0,6,6,25,,,,,,,,,,,,,,,j,1,1.5524454369999603,,,100,001,2019_Mar_12_1148,test_run,3.0.6,60.00195474369203,
123,ENW,ENW_33_froamation_150219.wav,n,c ,,,,,0,7,7,122,,,,,,,,,,,,,,,n,1,4.250361173999977,,,100,001,2019_Mar_12_1148,test_run,3.0.6,60.00195474369203,
37,EFW,EFW_7_sociala_070319.wav,j,c ,,,,,0,8,8,36,,,,,,,,,,,,,,,j,1,1.9190337649999947,,,100,001,2019_Mar_12_1148,test_run,3.0.6,60.00195474369203,
131,ENW,ENW_41_vessmaren_150219.wav,n,c ,,,,,0,9,9,130,,,,,,,,,,,,,,,n,1,4.202594513000008,,,100,001,2019_Mar_12_1148,test_run,3.0.6,60.00195474369203,
84,EFW,EFW_54_romaner_070319.wav,j,c ,,,,,0,10,10,83,,,,,,,,,,,,,,,j,1,1.535825122999995,,,100,001,2019_Mar_12_1148,test_run,3.0.6,60.00195474369203,
40,EFW,EFW_10_laarare_070319.wav,j,c ,,,,,0,11,11,39,,,,,,,,,,,,,,,j,1,1.1697173789999624,,,100,001,2019_Mar_12_1148,test_run,3.0.6,60.00195474369203,
68,EFW,EFW_38_foerefoell_070319.wav,j,c ,,,,,0,12,12,67,,,,,,,,,,,,,,,j,1,1.6190836309999668,,,100,001,2019_Mar_12_1148,test_run,3.0.6,60.00195474369203,
179,ENW,ENW_89_mikenspoan_150219.wav,n,c ,,,,,0,13,13,178,,,,,,,,,,,,,,,n,1,2.352481461000025,,,100,001,2019_Mar_12_1148,test_run,3.0.6,60.00195474369203,
166,ENW,ENW_76_omfläskor_150219.wav,n,c ,,,,,0,14,14,165,,,,,,,,,,,,,,,n,1,2.2520684940000137,,,100,001,2019_Mar_12_1148,test_run,3.0.6,60.00195474369203,
180,ENW,ENW_90_skrivinar_150219.wav,n,c ,,,,,0,15,15,179,,,,,,,,,,,,,,,n,1,1.9360453650000409,,,100,001,2019_Mar_12_1148,test_run,3.0.6,60.00195474369203,
120,ENW,ENW_30_sojera_150219.wav,n,c ,,,,,0,16,16,119,,,,,,,,,,,,,,,j,0,2.4025074740000036,,,100,001,2019_Mar_12_1148,test_run,3.0.6,60.00195474369203,
23,ECW,ECW_23_maximal_070319.wav,j,c ,,,,,0,17,17,22,,,,,,,,,,,,,,,j,1,1.3188281100000268,,,100,001,2019_Mar_12_1148,test_run,3.0.6,60.00195474369203,
130,ENW,ENW_40_knipackar_150219.wav,n,c ,,,,,0,18,18,129,,,,,,,,,,,,,,,n,1,3.353321152000035,,,100,001,2019_Mar_12_1148,test_run,3.0.6,60.00195474369203,
53,EFW,EFW_23_aamne_070319.wav,j,c ,,,,,0,19,19,52,,,,,,,,,,,,,,,j,1,1.2692712199999505,,,100,001,2019_Mar_12_1148,test_run,3.0.6,60.00195474369203,
18,ECW,ECW_18_morkulla_070319.wav,j,c ,,,,,0,20,20,17,,,,,,,,,,,,,,,j,1,2.886028754999984,,,100,001,2019_Mar_12_1148,test_run,3.0.6,60.00195474369203,
24,ECW,ECW_24_fysiker_070319.wav,j,c ,,,,,0,21,21,23,,,,,,,,,,,,,,,j,1,1.3528570400000035,,,100,001,2019_Mar_12_1148,test_run,3.0.6,60.00195474369203,
149,ENW,ENW_59_kyrkmänning_150219.wav,n,c ,,,,,0,22,22,148,,,,,,,,,,,,,,,n,1,2.2695772980000584,,,100,001,2019_Mar_12_1148,test_run,3.0.6,60.00195474369203,
111,ENW,ENW_21_tjulning_150219.wav,n,c ,,,,,0,23,23,110,,,,,,,,,,,,,,,j,0,1.969595902999913,,,100,001,2019_Mar_12_1148,test_run,3.0.6,60.00195474369203,
51,EFW,EFW_21_varierar_070319.wav,j,c ,,,,,0,24,24,50,,,,,,,,,,,,,,,j,1,1.3187874429999056,,,100,001,2019_Mar_12_1148,test_run,3.0.6,60.00195474369203,
97,ENW,ENW_7_flasera_150219.wav,n,c ,,,,,0,25,25,96,,,,,,,,,,,,,,,n,1,2.102243845999965,,,100,001,2019_Mar_12_1148,test_run,3.0.6,60.00195474369203,
11,ECW,ECW_11_foersoeka_070319.wav,j,c ,,,,,0,26,26,10,,,,,,,,,,,,,,,j,1,1.185925535000024,,,100,001,2019_Mar_12_1148,test_run,3.0.6,60.00195474369203,
171,ENW,ENW_81_persifera_150219.wav,n,c ,,,,,0,27,27,170,,,,,,,,,,,,,,,n,1,2.5020241870000746,,,100,001,2019_Mar_12_1148,test_run,3.0.6,60.00195474369203,
41,EFW,EFW_11_maanniskor_070319.wav,j,c ,,,,,0,28,28,40,,,,,,,,,,,,,,,j,1,1.2201521209999555,,,100,001,2019_Mar_12_1148,test_run,3.0.6,60.00195474369203,
6,ECW,ECW_6_sila_070319.wav,j,c ,,,,,0,29,29,5,,,,,,,,,,,,,,,j,1,4.0169393090000085,,,100,001,2019_Mar_12_1148,test_run,3.0.6,60.00195474369203,
137,ENW,ENW_47_oafläppen_150219.wav,n,c ,,,,,0,30,30,136,,,,,,,,,,,,,,,n,1,1.4192387980000376,,,100,001,2019_Mar_12_1148,test_run,3.0.6,60.00195474369203,
156,ENW,ENW_66_voarsmenar_150219.wav,n,c ,,,,,0,31,31,155,,,,,,,,,,,,,,,n,1,2.019014349000031,,,100,001,2019_Mar_12_1148,test_run,3.0.6,60.00195474369203,
83,EFW,EFW_53_sovrum_070319.wav,j,c ,,,,,0,32,32,82,,,,,,,,,,,,,,,j,1,1.2195251910000025,,,100,001,2019_Mar_12_1148,test_run,3.0.6,60.00195474369203,
107,ENW,ENW_17_kopynnor_150219.wav,n,c ,,,,,0,33,33,106,,,,,,,,,,,,,,,n,1,2.036028457000043,,,100,001,2019_Mar_12_1148,test_run,3.0.6,60.00195474369203,
67,EFW,EFW_37_foervisso_070319.wav,j,c ,,,,,0,34,34,66,,,,,,,,,,,,,,,j,1,1.2027838909999673,,,100,001,2019_Mar_12_1148,test_run,3.0.6,60.00195474369203,
30,ECW,ECW_30_recensioner_070319.wav,j,c ,,,,,0,35,35,29,,,,,,,,,,,,,,,j,1,1.7025080700000217,,,100,001,2019_Mar_12_1148,test_run,3.0.6,60.00195474369203,
167,ENW,ENW_77_somfera_150219.wav,n,c ,,,,,0,36,36,166,,,,,,,,,,,,,,,n,1,1.7859168539999928,,,100,001,2019_Mar_12_1148,test_run,3.0.6,60.00195474369203,
129,ENW,ENW_39_ljusonar_150219.wav,n,c ,,,,,0,37,37,128,,,,,,,,,,,,,,,n,1,2.9862291619999723,,,100,001,2019_Mar_12_1148,test_run,3.0.6,60.00195474369203,
168,ENW,ENW_78_morvinder_150219.wav,n,c ,,,,,0,38,38,167,,,,,,,,,,,,,,,n,1,3.1522703580000098,,,100,001,2019_Mar_12_1148,test_run,3.0.6,60.00195474369203,
128,ENW,ENW_38_roakanier_150219.wav,n,c ,,,,,0,39,39,127,,,,,,,,,,,,,,,j,0,4.152749311000093,,,100,001,2019_Mar_12_1148,test_run,3.0.6,60.00195474369203,
160,ENW,ENW_70_roklarner_150219.wav,n,c ,,,,,0,40,40,159,,,,,,,,,,,,,,,n,1,1.6505901279999762,,,100,001,2019_Mar_12_1148,test_run,3.0.6,60.00195474369203,
136,ENW,ENW_46_pommera_150219.wav,n,c ,,,,,0,41,41,135,,,,,,,,,,,,,,,n,1,1.335923176999927,,,100,001,2019_Mar_12_1148,test_run,3.0.6,60.00195474369203,
20,ECW,ECW_20_sommarspel_070319.wav,j,c ,,,,,0,42,42,19,,,,,,,,,,,,,,,j,1,1.3367154100000107,,,100,001,2019_Mar_12_1148,test_run,3.0.6,60.00195474369203,
57,EFW,EFW_27_analysera_070319.wav,j,c ,,,,,0,43,43,56,,,,,,,,,,,,,,,j,1,1.0358810200000335,,,100,001,2019_Mar_12_1148,test_run,3.0.6,60.00195474369203,
98,ENW,ENW_8_haväras_150219.wav,n,c ,,,,,0,44,44,97,,,,,,,,,,,,,,,j,0,3.4525475789999973,,,100,001,2019_Mar_12_1148,test_run,3.0.6,60.00195474369203,
78,EFW,EFW_48_varifroan_070319.wav,j,c ,,,,,0,45,45,77,,,,,,,,,,,,,,,j,1,1.2522459329999265,,,100,001,2019_Mar_12_1148,test_run,3.0.6,60.00195474369203,
27,ECW,ECW_27_panorama_070319.wav,j,c ,,,,,0,46,46,26,,,,,,,,,,,,,,,j,1,1.2862422480000077,,,100,001,2019_Mar_12_1148,test_run,3.0.6,60.00195474369203,
88,EFW,EFW_58_examen_070319.wav,j,c ,,,,,0,47,47,87,,,,,,,,,,,,,,,j,1,1.103171388000078,,,100,001,2019_Mar_12_1148,test_run,3.0.6,60.00195474369203,
153,ENW,ENW_63_femyrisk_150219.wav,n,c ,,,,,0,48,48,152,,,,,,,,,,,,,,,n,1,3.052451397000027,,,100,001,2019_Mar_12_1148,test_run,3.0.6,60.00195474369203,
65,EFW,EFW_35_affaarer_070319.wav,j,c ,,,,,0,49,49,64,,,,,,,,,,,,,,,j,1,1.035528298000031,,,100,001,2019_Mar_12_1148,test_run,3.0.6,60.00195474369203,
22,ECW,ECW_22_anonyma_070319.wav,j,c ,,,,,0,50,50,21,,,,,,,,,,,,,,,j,1,1.1195197990000452,,,100,001,2019_Mar_12_1148,test_run,3.0.6,60.00195474369203,
77,EFW,EFW_47_invoanare_070319.wav,j,c ,,,,,0,51,51,76,,,,,,,,,,,,,,,j,1,1.1520863370000143,,,100,001,2019_Mar_12_1148,test_run,3.0.6,60.00195474369203,
70,EFW,EFW_40_miljoner_070319.wav,j,c ,,,,,0,52,52,69,,,,,,,,,,,,,,,j,1,1.335864565999941,,,100,001,2019_Mar_12_1148,test_run,3.0.6,60.00195474369203,
75,EFW,EFW_45_innanfoer_070319.wav,j,c ,,,,,0,53,53,74,,,,,,,,,,,,,,,j,1,1.285787776999996,,,100,001,2019_Mar_12_1148,test_run,3.0.6,60.00195474369203,
119,ENW,ENW_29_uppskira_150219.wav,n,c ,,,,,0,54,54,118,,,,,,,,,,,,,,,n,1,1.952340466999999,,,100,001,2019_Mar_12_1148,test_run,3.0.6,60.00195474369203,
89,EFW,EFW_59_filosofin_070319.wav,j,c ,,,,,0,55,55,88,,,,,,,,,,,,,,,j,1,1.6027827239998942,,,100,001,2019_Mar_12_1148,test_run,3.0.6,60.00195474369203,
33,EFW,EFW_3_familjen_070319.wav,j,c ,,,,,0,56,56,32,,,,,,,,,,,,,,,j,1,1.5689260839999406,,,100,001,2019_Mar_12_1148,test_run,3.0.6,60.00195474369203,
115,ENW,ENW_25_affierar_150219.wav,n,c ,,,,,0,57,57,114,,,,,,,,,,,,,,,n,1,2.5520291700000826,,,100,001,2019_Mar_12_1148,test_run,3.0.6,60.00195474369203,
4,ECW,ECW_4_skraalla_070319.wav,j,c ,,,,,0,58,58,3,,,,,,,,,,,,,,,j,1,1.7357409490000464,,,100,001,2019_Mar_12_1148,test_run,3.0.6,60.00195474369203,
92,ENW,ENW_2_overralka_150219.wav,n,c ,,,,,0,59,59,91,,,,,,,,,,,,,,,n,1,1.7861913179999647,,,100,001,2019_Mar_12_1148,test_run,3.0.6,60.00195474369203,
12,ECW,ECW_12_moehippa_070319.wav,j,c ,,,,,0,60,60,11,,,,,,,,,,,,,,,j,1,1.4860486329999958,,,100,001,2019_Mar_12_1148,test_run,3.0.6,60.00195474369203,
2,ECW,ECW_2_hinna_070319.wav,j,c ,,,,,0,61,61,1,,,,,,,,,,,,,,,j,1,1.0693860920000589,,,100,001,2019_Mar_12_1148,test_run,3.0.6,60.00195474369203,
96,ENW,ENW_6_vilfroaser_150219.wav,n,c ,,,,,0,62,62,95,,,,,,,,,,,,,,,n,1,1.819094163999921,,,100,001,2019_Mar_12_1148,test_run,3.0.6,60.00195474369203,
105,ENW,ENW_15_forfeckla_150219.wav,n,c ,,,,,0,63,63,104,,,,,,,,,,,,,,,n,1,1.7021171630000254,,,100,001,2019_Mar_12_1148,test_run,3.0.6,60.00195474369203,
32,EFW,EFW_2_snarare_070319.wav,j,c ,,,,,0,64,64,31,,,,,,,,,,,,,,,j,1,1.3696863310000253,,,100,001,2019_Mar_12_1148,test_run,3.0.6,60.00195474369203,
109,ENW,ENW_19_morloren_150219.wav,n,c ,,,,,0,65,65,108,,,,,,,,,,,,,,,n,1,1.6697174839999889,,,100,001,2019_Mar_12_1148,test_run,3.0.6,60.00195474369203,
143,ENW,ENW_53_svarmvisso_150219.wav,n,c ,,,,,0,66,66,142,,,,,,,,,,,,,,,n,1,2.102232903000072,,,100,001,2019_Mar_12_1148,test_run,3.0.6,60.00195474369203,
17,ECW,ECW_17_majonnaas_070319.wav,j,c ,,,,,0,67,67,16,,,,,,,,,,,,,,,j,1,1.4191563379999934,,,100,001,2019_Mar_12_1148,test_run,3.0.6,60.00195474369203,
142,ENW,ENW_52_filofyll_150219.wav,n,c ,,,,,0,68,68,141,,,,,,,,,,,,,,,j,0,3.6695285350000404,,,100,001,2019_Mar_12_1148,test_run,3.0.6,60.00195474369203,
47,EFW,EFW_17_januari_070319.wav,j,c ,,,,,0,69,69,46,,,,,,,,,,,,,,,j,1,1.2528208989999712,,,100,001,2019_Mar_12_1148,test_run,3.0.6,60.00195474369203,
19,ECW,ECW_19_persiska_070319.wav,j,c ,,,,,0,70,70,18,,,,,,,,,,,,,,,j,1,1.3860400879999588,,,100,001,2019_Mar_12_1148,test_run,3.0.6,60.00195474369203,
56,EFW,EFW_26_armarna_070319.wav,j,c ,,,,,0,71,71,55,,,,,,,,,,,,,,,n,0,1.2358439500000031,,,100,001,2019_Mar_12_1148,test_run,3.0.6,60.00195474369203,
116,ENW,ENW_26_anufera_150219.wav,n,c ,,,,,0,72,72,115,,,,,,,,,,,,,,,n,1,1.7191127199999983,,,100,001,2019_Mar_12_1148,test_run,3.0.6,60.00195474369203,
44,EFW,EFW_14_foersoeken_070319.wav,j,c ,,,,,0,73,73,43,,,,,,,,,,,,,,,j,1,1.4525622590000467,,,100,001,2019_Mar_12_1148,test_run,3.0.6,60.00195474369203,
112,ENW,ENW_22_fjäserna_150219.wav,n,c ,,,,,0,74,74,111,,,,,,,,,,,,,,,n,1,4.652649147000034,,,100,001,2019_Mar_12_1148,test_run,3.0.6,60.00195474369203,
13,ECW,ECW_13_kanonform_070319.wav,j,c ,,,,,0,75,75,12,,,,,,,,,,,,,,,j,1,1.73577436700009,,,100,001,2019_Mar_12_1148,test_run,3.0.6,60.00195474369203,
127,ENW,ENW_37_spallrivet_150219.wav,n,c ,,,,,0,76,76,126,,,,,,,,,,,,,,,n,1,2.3857523000000356,,,100,001,2019_Mar_12_1148,test_run,3.0.6,60.00195474369203,
16,ECW,ECW_16_skinskalle_070319.wav,j,c ,,,,,0,77,77,15,,,,,,,,,,,,,,,j,1,1.652385382000034,,,100,001,2019_Mar_12_1148,test_run,3.0.6,60.00195474369203,
170,ENW,ENW_80_tjarfera_150219.wav,n,c ,,,,,0,78,78,169,,,,,,,,,,,,,,,n,1,1.6521101699999008,,,100,001,2019_Mar_12_1148,test_run,3.0.6,60.00195474369203,
3,ECW,ECW_3_virus_070319.wav,j,c ,,,,,0,79,79,2,,,,,,,,,,,,,,,j,1,2.2360534209999514,,,100,001,2019_Mar_12_1148,test_run,3.0.6,60.00195474369203,
31,EFW,EFW_1_allmaan_070319.wav,j,c ,,,,,0,80,80,30,,,,,,,,,,,,,,,j,1,1.3029263619999938,,,100,001,2019_Mar_12_1148,test_run,3.0.6,60.00195474369203,
108,ENW,ENW_18_moalursena_150219.wav,n,c ,,,,,0,81,81,107,,,,,,,,,,,,,,,n,1,2.4694488379999484,,,100,001,2019_Mar_12_1148,test_run,3.0.6,60.00195474369203,
36,EFW,EFW_6_massa_070319.wav,j,c ,,,,,0,82,82,35,,,,,,,,,,,,,,,j,1,1.2364362130000472,,,100,001,2019_Mar_12_1148,test_run,3.0.6,60.00195474369203,
140,ENW,ENW_50_omsänare_150219.wav,n,c ,,,,,0,83,83,139,,,,,,,,,,,,,,,n,1,2.3854071630000817,,,100,001,2019_Mar_12_1148,test_run,3.0.6,60.00195474369203,
148,ENW,ENW_58_malvossa_150219.wav,n,c ,,,,,0,84,84,147,,,,,,,,,,,,,,,n,1,2.186230472000034,,,100,001,2019_Mar_12_1148,test_run,3.0.6,60.00195474369203,
25,ECW,ECW_25_oeverfoeras_070319.wav,j,c ,,,,,0,85,85,24,,,,,,,,,,,,,,,j,1,1.5361853990000327,,,100,001,2019_Mar_12_1148,test_run,3.0.6,60.00195474369203,
87,EFW,EFW_57_loenerna_070319.wav,j,c ,,,,,0,86,86,86,,,,,,,,,,,,,,,j,1,1.402300438999987,,,100,001,2019_Mar_12_1148,test_run,3.0.6,60.00195474369203,
103,ENW,ENW_13_forvaron_150219.wav,n,c ,,,,,0,87,87,102,,,,,,,,,,,,,,,j,0,1.7196949969999196,,,100,001,2019_Mar_12_1148,test_run,3.0.6,60.00195474369203,
8,ECW,ECW_8_fryshus_070319.wav,j,c ,,,,,0,88,88,7,,,,,,,,,,,,,,,j,1,2.035898957000086,,,100,001,2019_Mar_12_1148,test_run,3.0.6,60.00195474369203,
147,ENW,ENW_57_flovanning_150219.wav,n,c ,,,,,0,89,89,146,,,,,,,,,,,,,,,n,1,1.4691652760000125,,,100,001,2019_Mar_12_1148,test_run,3.0.6,60.00195474369203,
62,EFW,EFW_32_fyller_070319.wav,j,c ,,,,,0,90,90,61,,,,,,,,,,,,,,,j,1,2.1865086710000696,,,100,001,2019_Mar_12_1148,test_run,3.0.6,60.00195474369203,
124,ENW,ENW_34_jomera_150219.wav,n,c ,,,,,0,91,91,123,,,,,,,,,,,,,,,n,1,1.7696485850000272,,,100,001,2019_Mar_12_1148,test_run,3.0.6,60.00195474369203,
63,EFW,EFW_33_elva_070319.wav,j,c ,,,,,0,92,92,62,,,,,,,,,,,,,,,j,1,1.0856858900000361,,,100,001,2019_Mar_12_1148,test_run,3.0.6,60.00195474369203,
164,ENW,ENW_74_malsera_150219.wav,n,c ,,,,,0,93,93,163,,,,,,,,,,,,,,,n,1,1.4520375949999789,,,100,001,2019_Mar_12_1148,test_run,3.0.6,60.00195474369203,
14,ECW,ECW_14_excellens_070319.wav,j,c ,,,,,0,94,94,13,,,,,,,,,,,,,,,j,1,1.3533246630000804,,,100,001,2019_Mar_12_1148,test_run,3.0.6,60.00195474369203,
155,ENW,ENW_65_hamfylla_150219.wav,n,c ,,,,,0,95,95,154,,,,,,,,,,,,,,,n,1,2.435690200999943,,,100,001,2019_Mar_12_1148,test_run,3.0.6,60.00195474369203,
9,ECW,ECW_9_spinna_070319.wav,j,c ,,,,,0,96,96,8,,,,,,,,,,,,,,,j,1,1.485929302000045,,,100,001,2019_Mar_12_1148,test_run,3.0.6,60.00195474369203,
5,ECW,ECW_5_kamma_070319.wav,j,c ,,,,,0,97,97,4,,,,,,,,,,,,,,,j,1,2.8196998380000196,,,100,001,2019_Mar_12_1148,test_run,3.0.6,60.00195474369203,
138,ENW,ENW_48_skyjamsen_150219.wav,n,c ,,,,,0,98,98,137,,,,,,,,,,,,,,,n,1,1.752411369000015,,,100,001,2019_Mar_12_1148,test_run,3.0.6,60.00195474369203,
159,ENW,ENW_69_mjohusa_150219.wav,n,c ,,,,,0,99,99,158,,,,,,,,,,,,,,,n,1,1.9688998990000073,,,100,001,2019_Mar_12_1148,test_run,3.0.6,60.00195474369203,
42,EFW,EFW_12_foeremoal_070319.wav,j,c ,,,,,0,100,100,41,,,,,,,,,,,,,,,j,1,1.252738094999927,,,100,001,2019_Mar_12_1148,test_run,3.0.6,60.00195474369203,
69,EFW,EFW_39_foersvara_070319.wav,j,c ,,,,,0,101,101,68,,,,,,,,,,,,,,,j,1,1.4027394060000233,,,100,001,2019_Mar_12_1148,test_run,3.0.6,60.00195474369203,
152,ENW,ENW_62_ljullepilja_150219.wav,n,c ,,,,,0,102,102,151,,,,,,,,,,,,,,,n,1,1.5532934210000349,,,100,001,2019_Mar_12_1148,test_run,3.0.6,60.00195474369203,
134,ENW,ENW_44_inlivna_150219.wav,n,c ,,,,,0,103,103,133,,,,,,,,,,,,,,,n,1,1.7855278349999253,,,100,001,2019_Mar_12_1148,test_run,3.0.6,60.00195474369203,
101,ENW,ENW_11_fränna_150219.wav,n,c ,,,,,0,104,104,100,,,,,,,,,,,,,,,n,1,1.4358591750000187,,,100,001,2019_Mar_12_1148,test_run,3.0.6,60.00195474369203,
76,EFW,EFW_46_foerhoer_070319.wav,j,c ,,,,,0,105,105,75,,,,,,,,,,,,,,,j,1,1.9194641949999323,,,100,001,2019_Mar_12_1148,test_run,3.0.6,60.00195474369203,
54,EFW,EFW_24_foersvinner_070319.wav,j,c ,,,,,0,106,106,53,,,,,,,,,,,,,,,j,1,1.5523201859999745,,,100,001,2019_Mar_12_1148,test_run,3.0.6,60.00195474369203,
7,ECW,ECW_7_marin_070319.wav,j,c ,,,,,0,107,107,6,,,,,,,,,,,,,,,j,1,1.5356198069999891,,,100,001,2019_Mar_12_1148,test_run,3.0.6,60.00195474369203,
132,ENW,ENW_42_hamsforing_150219.wav,n,c ,,,,,0,108,108,131,,,,,,,,,,,,,,,n,1,5.919129908999935,,,100,001,2019_Mar_12_1148,test_run,3.0.6,60.00195474369203,
52,EFW,EFW_22_normala_070319.wav,j,c ,,,,,0,109,109,51,,,,,,,,,,,,,,,j,1,1.5021759779999684,,,100,001,2019_Mar_12_1148,test_run,3.0.6,60.00195474369203,
60,EFW,EFW_30_officiella_070319.wav,j,c ,,,,,0,110,110,59,,,,,,,,,,,,,,,j,1,1.3191874209999241,,,100,001,2019_Mar_12_1148,test_run,3.0.6,60.00195474369203,
21,ECW,ECW_21_husera_070319.wav,j,c ,,,,,0,111,111,20,,,,,,,,,,,,,,,j,1,1.1526311509999232,,,100,001,2019_Mar_12_1148,test_run,3.0.6,60.00195474369203,
133,ENW,ENW_43_axalän_150219.wav,n,c ,,,,,0,112,112,132,,,,,,,,,,,,,,,n,1,1.8693796939999174,,,100,001,2019_Mar_12_1148,test_run,3.0.6,60.00195474369203,
1,ECW,ECW_1_anka_070319.wav,j,c ,,,,,0,113,113,0,,,,,,,,,,,,,,,j,1,1.4029202919999761,,,100,001,2019_Mar_12_1148,test_run,3.0.6,60.00195474369203,
59,EFW,EFW_29_formen_070319.wav,j,c ,,,,,0,114,114,58,,,,,,,,,,,,,,,j,1,1.2529095620000135,,,100,001,2019_Mar_12_1148,test_run,3.0.6,60.00195474369203,
61,EFW,EFW_31_jaamfoera_070319.wav,j,c ,,,,,0,115,115,60,,,,,,,,,,,,,,,j,1,1.5690615820000176,,,100,001,2019_Mar_12_1148,test_run,3.0.6,60.00195474369203,
141,ENW,ENW_51_skillare_150219.wav,n,c ,,,,,0,116,116,140,,,,,,,,,,,,,,,n,1,2.0840775320000375,,,100,001,2019_Mar_12_1148,test_run,3.0.6,60.00195474369203,
39,EFW,EFW_9_infektion_070319.wav,j,c ,,,,,0,117,117,38,,,,,,,,,,,,,,,j,1,1.3028419689999282,,,100,001,2019_Mar_12_1148,test_run,3.0.6,60.00195474369203,
175,ENW,ENW_85_forlinna_150219.wav,n,c ,,,,,0,118,118,174,,,,,,,,,,,,,,,n,1,1.8169909599999983,,,100,001,2019_Mar_12_1148,test_run,3.0.6,60.00195474369203,
177,ENW,ENW_87_kloavare_150219.wav,n,c ,,,,,0,119,119,176,,,,,,,,,,,,,,,n,1,1.4857877030000282,,,100,001,2019_Mar_12_1148,test_run,3.0.6,60.00195474369203,
100,ENW,ENW_10_skinnamer_150219.wav,n,c ,,,,,0,120,120,99,,,,,,,,,,,,,,,n,1,1.8525905249999823,,,100,001,2019_Mar_12_1148,test_run,3.0.6,60.00195474369203,
157,ENW,ENW_67_oafreskar_150219.wav,n,c ,,,,,0,121,121,156,,,,,,,,,,,,,,,n,1,1.7022508090000201,,,100,001,2019_Mar_12_1148,test_run,3.0.6,60.00195474369203,
158,ENW,ENW_68_presionar_150219.wav,n,c ,,,,,0,122,122,157,,,,,,,,,,,,,,,n,1,1.9691041990000713,,,100,001,2019_Mar_12_1148,test_run,3.0.6,60.00195474369203,
72,EFW,EFW_42_naavaron_070319.wav,j,c ,,,,,0,123,123,71,,,,,,,,,,,,,,,j,1,1.6196236579999095,,,100,001,2019_Mar_12_1148,test_run,3.0.6,60.00195474369203,
104,ENW,ENW_14_kärmenor_150219.wav,n,c ,,,,,0,124,124,103,,,,,,,,,,,,,,,n,1,2.11894221700004,,,100,001,2019_Mar_12_1148,test_run,3.0.6,60.00195474369203,
71,EFW,EFW_41_infinna_070319.wav,j,c ,,,,,0,125,125,70,,,,,,,,,,,,,,,j,1,1.7025341159999243,,,100,001,2019_Mar_12_1148,test_run,3.0.6,60.00195474369203,
74,EFW,EFW_44_ljusa_070319.wav,j,c ,,,,,0,126,126,73,,,,,,,,,,,,,,,n,0,2.502554142000008,,,100,001,2019_Mar_12_1148,test_run,3.0.6,60.00195474369203,
139,ENW,ENW_49_hälskrena_150219.wav,n,c ,,,,,0,127,127,138,,,,,,,,,,,,,,,n,1,1.735779988000104,,,100,001,2019_Mar_12_1148,test_run,3.0.6,60.00195474369203,
135,ENW,ENW_45_fammoarens_150219.wav,n,c ,,,,,0,128,128,134,,,,,,,,,,,,,,,n,1,2.6189885109999977,,,100,001,2019_Mar_12_1148,test_run,3.0.6,60.00195474369203,
80,EFW,EFW_50_snaalla_070319.wav,j,c ,,,,,0,129,129,79,,,,,,,,,,,,,,,j,1,1.2521810999999161,,,100,001,2019_Mar_12_1148,test_run,3.0.6,60.00195474369203,
45,EFW,EFW_15_oeverens_070319.wav,j,c ,,,,,0,130,130,44,,,,,,,,,,,,,,,j,1,1.2837726479999674,,,100,001,2019_Mar_12_1148,test_run,3.0.6,60.00195474369203,
121,ENW,ENW_31_romation_150219.wav,n,c ,,,,,0,131,131,120,,,,,,,,,,,,,,,n,1,1.5028672480000296,,,100,001,2019_Mar_12_1148,test_run,3.0.6,60.00195474369203,
118,ENW,ENW_28_läkermask_150219.wav,n,c ,,,,,0,132,132,117,,,,,,,,,,,,,,,j,0,2.1363379520000763,,,100,001,2019_Mar_12_1148,test_run,3.0.6,60.00195474369203,
99,ENW,ENW_9_samlemor_150219.wav,n,c ,,,,,0,133,133,98,,,,,,,,,,,,,,,n,1,1.4693567540000458,,,100,001,2019_Mar_12_1148,test_run,3.0.6,60.00195474369203,
161,ENW,ENW_71_forskäckla_150219.wav,n,c ,,,,,0,134,134,160,,,,,,,,,,,,,,,n,1,1.4200433189998876,,,100,001,2019_Mar_12_1148,test_run,3.0.6,60.00195474369203,
49,EFW,EFW_19_roerelse_070319.wav,j,c ,,,,,0,135,135,48,,,,,,,,,,,,,,,j,1,1.3525159600001189,,,100,001,2019_Mar_12_1148,test_run,3.0.6,60.00195474369203,
64,EFW,EFW_34_sommar_070319.wav,j,c ,,,,,0,136,136,63,,,,,,,,,,,,,,,j,1,1.4172103260000313,,,100,001,2019_Mar_12_1148,test_run,3.0.6,60.00195474369203,
174,ENW,ENW_84_hurmarna_150219.wav,n,c ,,,,,0,137,137,173,,,,,,,,,,,,,,,n,1,2.369170469999972,,,100,001,2019_Mar_12_1148,test_run,3.0.6,60.00195474369203,
102,ENW,ENW_12_snälmola_150219.wav,n,c ,,,,,0,138,138,101,,,,,,,,,,,,,,,n,1,2.752153774000135,,,100,001,2019_Mar_12_1148,test_run,3.0.6,60.00195474369203,
169,ENW,ENW_79_lyxmare_150219.wav,n,c ,,,,,0,139,139,168,,,,,,,,,,,,,,,n,1,1.7189092940000137,,,100,001,2019_Mar_12_1148,test_run,3.0.6,60.00195474369203,
150,ENW,ENW_60_lackpenar_150219.wav,n,c ,,,,,0,140,140,149,,,,,,,,,,,,,,,n,1,6.28609478400017,,,100,001,2019_Mar_12_1148,test_run,3.0.6,60.00195474369203,
15,ECW,ECW_15_tjuvarna_070319.wav,j,c ,,,,,0,141,141,14,,,,,,,,,,,,,,,j,1,1.1859211560001768,,,100,001,2019_Mar_12_1148,test_run,3.0.6,60.00195474369203,
85,EFW,EFW_55_oroar_070319.wav,j,c ,,,,,0,142,142,84,,,,,,,,,,,,,,,j,1,1.1859082169999056,,,100,001,2019_Mar_12_1148,test_run,3.0.6,60.00195474369203,
106,ENW,ENW_16_rolinkar_150219.wav,n,c ,,,,,0,143,143,105,,,,,,,,,,,,,,,n,1,1.8193135699998493,,,100,001,2019_Mar_12_1148,test_run,3.0.6,60.00195474369203,
178,ENW,ENW_88_marsifen_150219.wav,n,c ,,,,,0,144,144,177,,,,,,,,,,,,,,,n,1,2.1362565519998498,,,100,001,2019_Mar_12_1148,test_run,3.0.6,60.00195474369203,
145,ENW,ENW_55_invaskin_150219.wav,n,c ,,,,,0,145,145,144,,,,,,,,,,,,,,,n,1,4.302703698000187,,,100,001,2019_Mar_12_1148,test_run,3.0.6,60.00195474369203,
146,ENW,ENW_56_lysskarna_150219.wav,n,c ,,,,,0,146,146,145,,,,,,,,,,,,,,,n,1,1.6695393420000073,,,100,001,2019_Mar_12_1148,test_run,3.0.6,60.00195474369203,
93,ENW,ENW_3_vissorens_150219.wav,n,c ,,,,,0,147,147,92,,,,,,,,,,,,,,,n,1,2.385357016999933,,,100,001,2019_Mar_12_1148,test_run,3.0.6,60.00195474369203,
122,ENW,ENW_32_fonering_150219.wav,n,c ,,,,,0,148,148,121,,,,,,,,,,,,,,,n,1,1.535472665000043,,,100,001,2019_Mar_12_1148,test_run,3.0.6,60.00195474369203,
113,ENW,ENW_23_allsänning_150219.wav,n,c ,,,,,0,149,149,112,,,,,,,,,,,,,,,n,1,4.035722343999851,,,100,001,2019_Mar_12_1148,test_run,3.0.6,60.00195474369203,
95,ENW,ENW_5_spoamisk_150219.wav,n,c ,,,,,0,150,150,94,,,,,,,,,,,,,,,n,1,1.7189502930000344,,,100,001,2019_Mar_12_1148,test_run,3.0.6,60.00195474369203,
50,EFW,EFW_20_fenomen_070319.wav,j,c ,,,,,0,151,151,49,,,,,,,,,,,,,,,j,1,1.169040791000043,,,100,001,2019_Mar_12_1148,test_run,3.0.6,60.00195474369203,
79,EFW,EFW_49_vaasen_070319.wav,j,c ,,,,,0,152,152,78,,,,,,,,,,,,,,,j,1,1.2359577360000458,,,100,001,2019_Mar_12_1148,test_run,3.0.6,60.00195474369203,
114,ENW,ENW_24_samjoner_150219.wav,n,c ,,,,,0,153,153,113,,,,,,,,,,,,,,,n,1,2.2191990670000905,,,100,001,2019_Mar_12_1148,test_run,3.0.6,60.00195474369203,
35,EFW,EFW_5_samhaalle_070319.wav,j,c ,,,,,0,154,154,34,,,,,,,,,,,,,,,j,1,1.502800040000011,,,100,001,2019_Mar_12_1148,test_run,3.0.6,60.00195474369203,
82,EFW,EFW_52_framhoalla_070319.wav,j,c ,,,,,0,155,155,81,,,,,,,,,,,,,,,j,1,1.3023981289998119,,,100,001,2019_Mar_12_1148,test_run,3.0.6,60.00195474369203,
43,EFW,EFW_13_elever_070319.wav,j,c ,,,,,0,156,156,42,,,,,,,,,,,,,,,j,1,1.1691004009999233,,,100,001,2019_Mar_12_1148,test_run,3.0.6,60.00195474369203,
126,ENW,ENW_36_skymlosa_150219.wav,n,c ,,,,,0,157,157,125,,,,,,,,,,,,,,,n,1,2.7858762849998584,,,100,001,2019_Mar_12_1148,test_run,3.0.6,60.00195474369203,
58,EFW,EFW_28_olja_070319.wav,j,c ,,,,,0,158,158,57,,,,,,,,,,,,,,,j,1,0.919851953000034,,,100,001,2019_Mar_12_1148,test_run,3.0.6,60.00195474369203,
66,EFW,EFW_36_haarifroan_070319.wav,j,c ,,,,,0,159,159,65,,,,,,,,,,,,,,,j,1,1.2357709360001081,,,100,001,2019_Mar_12_1148,test_run,3.0.6,60.00195474369203,
91,ENW,ENW_1_norsimerar_150219.wav,n,c ,,,,,0,160,160,90,,,,,,,,,,,,,,,n,1,1.6197853060000398,,,100,001,2019_Mar_12_1148,test_run,3.0.6,60.00195474369203,
38,EFW,EFW_8_samman_070319.wav,j,c ,,,,,0,161,161,37,,,,,,,,,,,,,,,j,1,1.1863663060000817,,,100,001,2019_Mar_12_1148,test_run,3.0.6,60.00195474369203,
48,EFW,EFW_18_nummer_070319.wav,j,c ,,,,,0,162,162,47,,,,,,,,,,,,,,,j,1,1.3027178320000985,,,100,001,2019_Mar_12_1148,test_run,3.0.6,60.00195474369203,
172,ENW,ENW_82_värskappa_150219.wav,n,c ,,,,,0,163,163,171,,,,,,,,,,,,,,,n,1,1.6190232520000336,,,100,001,2019_Mar_12_1148,test_run,3.0.6,60.00195474369203,
176,ENW,ENW_86_heloppsin_150219.wav,n,c ,,,,,0,164,164,175,,,,,,,,,,,,,,,n,1,2.7529614580000725,,,100,001,2019_Mar_12_1148,test_run,3.0.6,60.00195474369203,
163,ENW,ENW_73_vimmankalla_150219.wav,n,c ,,,,,0,165,165,162,,,,,,,,,,,,,,,n,1,2.719027300000107,,,100,001,2019_Mar_12_1148,test_run,3.0.6,60.00195474369203,
10,ECW,ECW_10_flisa_070319.wav,j,c ,,,,,0,166,166,9,,,,,,,,,,,,,,,j,1,1.2190699980001227,,,100,001,2019_Mar_12_1148,test_run,3.0.6,60.00195474369203,
162,ENW,ENW_72_urskecken_150219.wav,n,c ,,,,,0,167,167,161,,,,,,,,,,,,,,,n,1,2.936477771,,,100,001,2019_Mar_12_1148,test_run,3.0.6,60.00195474369203,
125,ENW,ENW_35_nymaljen_150219.wav,n,c ,,,,,0,168,168,124,,,,,,,,,,,,,,,n,1,1.6862745640000867,,,100,001,2019_Mar_12_1148,test_run,3.0.6,60.00195474369203,
28,ECW,ECW_28_maskinerna_070319.wav,j,c ,,,,,0,169,169,27,,,,,,,,,,,,,,,j,1,1.3027296560001105,,,100,001,2019_Mar_12_1148,test_run,3.0.6,60.00195474369203,
34,EFW,EFW_4_foerminska_070319.wav,j,c ,,,,,0,170,170,33,,,,,,,,,,,,,,,j,1,1.2197644879997824,,,100,001,2019_Mar_12_1148,test_run,3.0.6,60.00195474369203,
55,EFW,EFW_25_informera_070319.wav,j,c ,,,,,0,171,171,54,,,,,,,,,,,,,,,j,1,1.4525380210000094,,,100,001,2019_Mar_12_1148,test_run,3.0.6,60.00195474369203,
73,EFW,EFW_43_halvoar_070319.wav,j,c ,,,,,0,172,172,72,,,,,,,,,,,,,,,j,1,2.0025181729999986,,,100,001,2019_Mar_12_1148,test_run,3.0.6,60.00195474369203,
46,EFW,EFW_16_lyssna_070319.wav,j,c ,,,,,0,173,173,45,,,,,,,,,,,,,,,j,1,1.35266819200001,,,100,001,2019_Mar_12_1148,test_run,3.0.6,60.00195474369203,
117,ENW,ENW_27_lyssvinner_150219.wav,n,c ,,,,,0,174,174,116,,,,,,,,,,,,,,,n,1,1.9858578410000973,,,100,001,2019_Mar_12_1148,test_run,3.0.6,60.00195474369203,
151,ENW,ENW_61_myckskina_150219.wav,n,c ,,,,,0,175,175,150,,,,,,,,,,,,,,,n,1,1.5026252999998633,,,100,001,2019_Mar_12_1148,test_run,3.0.6,60.00195474369203,
144,ENW,ENW_54_lomering_150219.wav,n,c ,,,,,0,176,176,143,,,,,,,,,,,,,,,n,1,3.585839640999893,,,100,001,2019_Mar_12_1148,test_run,3.0.6,60.00195474369203,
110,ENW,ENW_20_invonen_150219.wav,n,c ,,,,,0,177,177,109,,,,,,,,,,,,,,,n,1,1.9193215850000342,,,100,001,2019_Mar_12_1148,test_run,3.0.6,60.00195474369203,
81,EFW,EFW_51_seminarier_070319.wav,j,c ,,,,,0,178,178,80,,,,,,,,,,,,,,,j,1,1.319060970999999,,,100,001,2019_Mar_12_1148,test_run,3.0.6,60.00195474369203,
90,EFW,EFW_60_insulin_070319.wav,j,c ,,,,,0,179,179,89,,,,,,,,,,,,,,,j,1,1.3190396200000123,,,100,001,2019_Mar_12_1148,test_run,3.0.6,60.00195474369203,
11,TDF,TDF_11_svid_070319.wav,,,1,rating_d_final.csv,d,final,,,,,0,0,0,0,0,0,0,0,0,0,0,10,,,,,,4,14.786,100,001,2019_Mar_12_1148,test_run,3.0.6,60.00195474369203,
27,TTF,TTF_27_sant_070319.wav,,,1,rating_d_final.csv,d,final,,,,,0,0,0,0,0,0,0,0,0,1,1,26,,,,,,1,3.787,100,001,2019_Mar_12_1148,test_run,3.0.6,60.00195474369203,
3,TDF,TDF_3_raad_070319.wav,,,1,rating_d_final.csv,d,final,,,,,0,0,0,0,0,0,0,0,0,2,2,2,,,,,,3,2.687,100,001,2019_Mar_12_1148,test_run,3.0.6,60.00195474369203,
8,TDF,TDF_8_nod_070319.wav,,,1,rating_d_final.csv,d,final,,,,,0,0,0,0,0,0,0,0,0,3,3,7,,,,,,4,12.371,100,001,2019_Mar_12_1148,test_run,3.0.6,60.00195474369203,
25,TTF,TTF_25_synt_070319.wav,,,1,rating_d_final.csv,d,final,,,,,0,0,0,0,0,0,0,0,0,4,4,24,,,,,,1,1.77,100,001,2019_Mar_12_1148,test_run,3.0.6,60.00195474369203,
16,TDF,TDF_16_fond_070319.wav,,,1,rating_d_final.csv,d,final,,,,,0,0,0,0,0,0,0,0,0,5,5,15,,,,,,2,7.453,100,001,2019_Mar_12_1148,test_run,3.0.6,60.00195474369203,
5,TDF,TDF_5_voad_070319.wav,,,1,rating_d_final.csv,d,final,,,,,0,0,0,0,0,0,0,0,0,6,6,4,,,,,,5,7.97,100,001,2019_Mar_12_1148,test_run,3.0.6,60.00195474369203,
7,TDF,TDF_7_vid_070319.wav,,,1,rating_d_final.csv,d,final,,,,,0,0,0,0,0,0,0,0,0,7,7,6,,,,,,1,2.155,100,001,2019_Mar_12_1148,test_run,3.0.6,60.00195474369203,
24,TTF,TTF_24_smit_070319.wav,,,1,rating_d_final.csv,d,final,,,,,0,0,0,0,0,0,0,0,0,8,8,23,,,,,,1,1.437,100,001,2019_Mar_12_1148,test_run,3.0.6,60.00195474369203,
6,TDF,TDF_6_voard_070319.wav,,,1,rating_d_final.csv,d,final,,,,,0,0,0,0,0,0,0,0,0,9,9,5,,,,,,6,4.686,100,001,2019_Mar_12_1148,test_run,3.0.6,60.00195474369203,
10,TDF,TDF_10_brod_070319.wav,,,1,rating_d_final.csv,d,final,,,,,0,0,0,0,0,0,0,0,0,10,10,9,,,,,,6,2.188,100,001,2019_Mar_12_1148,test_run,3.0.6,60.00195474369203,
9,TDF,TDF_9_bod_070319.wav,,,1,rating_d_final.csv,d,final,,,,,0,0,0,0,0,0,0,0,0,11,11,8,,,,,,1,1.103,100,001,2019_Mar_12_1148,test_run,3.0.6,60.00195474369203,
12,TDF,TDF_12_smed_070319.wav,,,1,rating_d_final.csv,d,final,,,,,0,0,0,0,0,0,0,0,0,12,12,11,,,,,,4,1.971,100,001,2019_Mar_12_1148,test_run,3.0.6,60.00195474369203,
18,TTF,TTF_18_skjut_070319.wav,,,1,rating_d_final.csv,d,final,,,,,0,0,0,0,0,0,0,0,0,13,13,17,,,,,,1,0.77,100,001,2019_Mar_12_1148,test_run,3.0.6,60.00195474369203,
2,TDF,TDF_2_ved_070319.wav,,,1,rating_d_final.csv,d,final,,,,,0,0,0,0,0,0,0,0,0,14,14,1,,,,,,5,5.27,100,001,2019_Mar_12_1148,test_run,3.0.6,60.00195474369203,
29,TTF,TTF_29_bett_070319.wav,,,1,rating_d_final.csv,d,final,,,,,0,0,0,0,0,0,0,0,0,15,15,28,,,,,,1,0.536,100,001,2019_Mar_12_1148,test_run,3.0.6,60.00195474369203,
14,TDF,TDF_14_mod_070319.wav,,,1,rating_d_final.csv,d,final,,,,,0,0,0,0,0,0,0,0,0,16,16,13,,,,,,7,2.103,100,001,2019_Mar_12_1148,test_run,3.0.6,60.00195474369203,
15,TDF,TDF_15_nod_070319.wav,,,1,rating_d_final.csv,d,final,,,,,0,0,0,0,0,0,0,0,0,17,17,14,,,,,,6,1.253,100,001,2019_Mar_12_1148,test_run,3.0.6,60.00195474369203,
20,TTF,TTF_20_got_070319.wav,,,1,rating_d_final.csv,d,final,,,,,0,0,0,0,0,0,0,0,0,18,18,19,,,,,,1,0.637,100,001,2019_Mar_12_1148,test_run,3.0.6,60.00195474369203,
21,TTF,TTF_21_gjoet_070319.wav,,,1,rating_d_final.csv,d,final,,,,,0,0,0,0,0,0,0,0,0,19,19,20,,,,,,1,0.854,100,001,2019_Mar_12_1148,test_run,3.0.6,60.00195474369203,
30,TTF,TTF_30_slatt_070319.wav,,,1,rating_d_final.csv,d,final,,,,,0,0,0,0,0,0,0,0,0,20,20,29,,,,,,1,0.637,100,001,2019_Mar_12_1148,test_run,3.0.6,60.00195474369203,
28,TTF,TTF_28_brant_070319.wav,,,1,rating_d_final.csv,d,final,,,,,0,0,0,0,0,0,0,0,0,21,21,27,,,,,,1,0.67,100,001,2019_Mar_12_1148,test_run,3.0.6,60.00195474369203,
26,TTF,TTF_26_rymt_070319.wav,,,1,rating_d_final.csv,d,final,,,,,0,0,0,0,0,0,0,0,0,22,22,25,,,,,,1,0.67,100,001,2019_Mar_12_1148,test_run,3.0.6,60.00195474369203,
4,TDF,TDF_4_rod_070319.wav,,,1,rating_d_final.csv,d,final,,,,,0,0,0,0,0,0,0,0,0,23,23,3,,,,,,6,1.171,100,001,2019_Mar_12_1148,test_run,3.0.6,60.00195474369203,
22,TTF,TTF_22_het_070319.wav,,,1,rating_d_final.csv,d,final,,,,,0,0,0,0,0,0,0,0,0,24,24,21,,,,,,2,0.586,100,001,2019_Mar_12_1148,test_run,3.0.6,60.00195474369203,
23,TTF,TTF_23_hut_070319.wav,,,1,rating_d_final.csv,d,final,,,,,0,0,0,0,0,0,0,0,0,25,25,22,,,,,,1,0.754,100,001,2019_Mar_12_1148,test_run,3.0.6,60.00195474369203,
1,TDF,TDF_1_rid_070319.wav,,,1,rating_d_final.csv,d,final,,,,,0,0,0,0,0,0,0,0,0,26,26,0,,,,,,3,0.537,100,001,2019_Mar_12_1148,test_run,3.0.6,60.00195474369203,
31,TTF,TTF_31_brott_070319.wav,,,1,rating_d_final.csv,d,final,,,,,0,0,0,0,0,0,0,0,0,27,27,30,,,,,,1,0.554,100,001,2019_Mar_12_1148,test_run,3.0.6,60.00195474369203,
13,TDF,TDF_13_ljud_070319.wav,,,1,rating_d_final.csv,d,final,,,,,0,0,0,0,0,0,0,0,0,28,28,12,,,,,,2,1.42,100,001,2019_Mar_12_1148,test_run,3.0.6,60.00195474369203,
17,TTF,TTF_17_sket_070319.wav,,,1,rating_d_final.csv,d,final,,,,,0,0,0,0,0,0,0,0,0,29,29,16,,,,,,1,5.654,100,001,2019_Mar_12_1148,test_run,3.0.6,60.00195474369203,
19,TTF,TTF_19_skoet_070319.wav,,,1,rating_d_final.csv,d,final,,,,,0,0,0,0,0,0,0,0,0,30,30,18,,,,,,1,3.72,100,001,2019_Mar_12_1148,test_run,3.0.6,60.00195474369203,
32,TTF,TTF_32_hoart_070319.wav,,,1,rating_d_final.csv,d,final,,,,,0,0,0,0,0,0,0,0,0,31,31,31,,,,,,1,1.504,100,001,2019_Mar_12_1148,test_run,3.0.6,60.00195474369203,
12,TTF,TTF_12_smet_070319.wav,,,1,rating_t_final.csv,t,final,,,,,0,0,0,0,0,1,1,1,0,0,0,11,,,,,,7,1.503,100,001,2019_Mar_12_1148,test_run,3.0.6,60.00195474369203,
26,TDF,TDF_26_rymd_070319.wav,,,1,rating_t_final.csv,t,final,,,,,0,0,0,0,0,1,1,1,0,1,1,25,,,,,,2,3.387,100,001,2019_Mar_12_1148,test_run,3.0.6,60.00195474369203,
19,TDF,TDF_19_sjod_070319.wav,,,1,rating_t_final.csv,t,final,,,,,0,0,0,0,0,1,1,1,0,2,2,18,,,,,,6,1.371,100,001,2019_Mar_12_1148,test_run,3.0.6,60.00195474369203,
25,TDF,TDF_25_synd_070319.wav,,,1,rating_t_final.csv,t,final,,,,,0,0,0,0,0,1,1,1,0,3,3,24,,,,,,3,5.62,100,001,2019_Mar_12_1148,test_run,3.0.6,60.00195474369203,
14,TTF,TTF_14_mot_070319.wav,,,1,rating_t_final.csv,t,final,,,,,0,0,0,0,0,1,1,1,0,4,4,13,,,,,,1,1.003,100,001,2019_Mar_12_1148,test_run,3.0.6,60.00195474369203,
17,TDF,TDF_17_sked_070319.wav,,,1,rating_t_final.csv,t,final,,,,,0,0,0,0,0,1,1,1,0,5,5,16,,,,,,5,2.936,100,001,2019_Mar_12_1148,test_run,3.0.6,60.00195474369203,
15,TTF,TTF_15_not_070319.wav,,,1,rating_t_final.csv,t,final,,,,,0,0,0,0,0,1,1,1,0,6,6,14,,,,,,7,2.768,100,001,2019_Mar_12_1148,test_run,3.0.6,60.00195474369203,
3,TTF,TTF_3_raat_070319.wav,,,1,rating_t_final.csv,t,final,,,,,0,0,0,0,0,1,1,1,0,7,7,2,,,,,,7,0.837,100,001,2019_Mar_12_1148,test_run,3.0.6,60.00195474369203,
1,TTF,TTF_1_rit_070319.wav,,,1,rating_t_final.csv,t,final,,,,,0,0,0,0,0,1,1,1,0,8,8,0,,,,,,7,1.204,100,001,2019_Mar_12_1148,test_run,3.0.6,60.00195474369203,
7,TTF,TTF_7_vit_070319.wav,,,1,rating_t_final.csv,t,final,,,,,0,0,0,0,0,1,1,1,0,9,9,6,,,,,,6,1.703,100,001,2019_Mar_12_1148,test_run,3.0.6,60.00195474369203,
9,TTF,TTF_9_bot_070319.wav,,,1,rating_t_final.csv,t,final,,,,,0,0,0,0,0,1,1,1,0,10,10,8,,,,,,7,0.937,100,001,2019_Mar_12_1148,test_run,3.0.6,60.00195474369203,
23,TDF,TDF_23_hud_070319.wav,,,1,rating_t_final.csv,t,final,,,,,0,0,0,0,0,1,1,1,0,11,11,22,,,,,,1,2.054,100,001,2019_Mar_12_1148,test_run,3.0.6,60.00195474369203,
18,TDF,TDF_18_sjud_070319.wav,,,1,rating_t_final.csv,t,final,,,,,0,0,0,0,0,1,1,1,0,12,12,17,,,,,,2,0.521,100,001,2019_Mar_12_1148,test_run,3.0.6,60.00195474369203,
32,TDF,TDF_32_hoard_070319.wav,,,1,rating_t_final.csv,t,final,,,,,0,0,0,0,0,1,1,1,0,13,13,31,,,,,,2,0.753,100,001,2019_Mar_12_1148,test_run,3.0.6,60.00195474369203,
31,TDF,TDF_31_brodd_070319.wav,,,1,rating_t_final.csv,t,final,,,,,0,0,0,0,0,1,1,1,0,14,14,30,,,,,,2,0.62,100,001,2019_Mar_12_1148,test_run,3.0.6,60.00195474369203,
24,TDF,TDF_24_smid_070319.wav,,,1,rating_t_final.csv,t,final,,,,,0,0,0,0,0,1,1,1,0,15,15,23,,,,,,2,2.687,100,001,2019_Mar_12_1148,test_run,3.0.6,60.00195474369203,
5,TTF,TTF_5_voat_070319.wav,,,1,rating_t_final.csv,t,final,,,,,0,0,0,0,0,1,1,1,0,16,16,4,,,,,,6,3.653,100,001,2019_Mar_12_1148,test_run,3.0.6,60.00195474369203,
29,TDF,TDF_29_baadd_070319.wav,,,1,rating_t_final.csv,t,final,,,,,0,0,0,0,0,1,1,1,0,17,17,28,,,,,,3,3.053,100,001,2019_Mar_12_1148,test_run,3.0.6,60.00195474369203,
20,TDF,TDF_20_god_070319.wav,,,1,rating_t_final.csv,t,final,,,,,0,0,0,0,0,1,1,1,0,18,18,19,,,,,,3,5.404,100,001,2019_Mar_12_1148,test_run,3.0.6,60.00195474369203,
2,TTF,TTF_2_vet_070319.wav,,,1,rating_t_final.csv,t,final,,,,,0,0,0,0,0,1,1,1,0,19,19,1,,,,,,7,1.885,100,001,2019_Mar_12_1148,test_run,3.0.6,60.00195474369203,
11,TTF,TTF_11_svit_070319.wav,,,1,rating_t_final.csv,t,final,,,,,0,0,0,0,0,1,1,1,0,20,20,10,,,,,,7,1.42,100,001,2019_Mar_12_1148,test_run,3.0.6,60.00195474369203,
30,TDF,TDF_30_sladd_070319.wav,,,1,rating_t_final.csv,t,final,,,,,0,0,0,0,0,1,1,1,0,21,21,29,,,,,,2,1.237,100,001,2019_Mar_12_1148,test_run,3.0.6,60.00195474369203,
8,TTF,TTF_8_noet_070319.wav,,,1,rating_t_final.csv,t,final,,,,,0,0,0,0,0,1,1,1,0,22,22,7,,,,,,7,0.787,100,001,2019_Mar_12_1148,test_run,3.0.6,60.00195474369203,
4,TTF,TTF_4_roet_070319.wav,,,1,rating_t_final.csv,t,final,,,,,0,0,0,0,0,1,1,1,0,23,23,3,,,,,,6,5.02,100,001,2019_Mar_12_1148,test_run,3.0.6,60.00195474369203,
16,TTF,TTF_16_font_070319.wav,,,1,rating_t_final.csv,t,final,,,,,0,0,0,0,0,1,1,1,0,24,24,15,,,,,,7,0.753,100,001,2019_Mar_12_1148,test_run,3.0.6,60.00195474369203,
28,TDF,TDF_28_brand_070319.wav,,,1,rating_t_final.csv,t,final,,,,,0,0,0,0,0,1,1,1,0,25,25,27,,,,,,7,0.837,100,001,2019_Mar_12_1148,test_run,3.0.6,60.00195474369203,
13,TTF,TTF_13_gjut_070319.wav,,,1,rating_t_final.csv,t,final,,,,,0,0,0,0,0,1,1,1,0,26,26,12,,,,,,7,0.703,100,001,2019_Mar_12_1148,test_run,3.0.6,60.00195474369203,
27,TDF,TDF_27_sand_070319.wav,,,1,rating_t_final.csv,t,final,,,,,0,0,0,0,0,1,1,1,0,27,27,26,,,,,,5,4.188,100,001,2019_Mar_12_1148,test_run,3.0.6,60.00195474369203,
10,TTF,TTF_10_broet_070319.wav,,,1,rating_t_final.csv,t,final,,,,,0,0,0,0,0,1,1,1,0,28,28,9,,,,,,7,0.92,100,001,2019_Mar_12_1148,test_run,3.0.6,60.00195474369203,
22,TDF,TDF_22_hed_070319.wav,,,1,rating_t_final.csv,t,final,,,,,0,0,0,0,0,1,1,1,0,29,29,21,,,,,,2,0.819,100,001,2019_Mar_12_1148,test_run,3.0.6,60.00195474369203,
6,TTF,TTF_6_voart_070319.wav,,,1,rating_t_final.csv,t,final,,,,,0,0,0,0,0,1,1,1,0,30,30,5,,,,,,7,0.92,100,001,2019_Mar_12_1148,test_run,3.0.6,60.00195474369203,
21,TDF,TDF_21_ljod _070319.wav,,,1,rating_t_final.csv,t,final,,,,,0,0,0,0,0,1,1,1,0,31,31,20,,,,,,4,4.621,100,001,2019_Mar_12_1148,test_run,3.0.6,60.00195474369203,
21,TTI,TTI_21_tugg_150219.wav,,,2,rating_d_initial.csv,d,initial,,,,,0,1,1,1,0,0,0,0,0,0,0,20,,,,,,1,0.67,100,001,2019_Mar_12_1148,test_run,3.0.6,60.00195474369203,
27,TTI,TTI_27_toem_150219.wav,,,2,rating_d_initial.csv,d,initial,,,,,0,1,1,1,0,0,0,0,0,1,1,26,,,,,,1,0.67,100,001,2019_Mar_12_1148,test_run,3.0.6,60.00195474369203,
15,TTI,TTI_15_tom_150219.wav,,,2,rating_d_initial.csv,d,initial,,,,,0,1,1,1,0,0,0,0,0,2,2,14,,,,,,1,0.67,100,001,2019_Mar_12_1148,test_run,3.0.6,60.00195474369203,
5,TDI,TDI_5_dass_150219.wav,,,2,rating_d_initial.csv,d,initial,,,,,0,1,1,1,0,0,0,0,0,3,3,4,,,,,,6,1.438,100,001,2019_Mar_12_1148,test_run,3.0.6,60.00195474369203,
14,TDI,TDI_14_dok_150219.wav,,,2,rating_d_initial.csv,d,initial,,,,,0,1,1,1,0,0,0,0,0,4,4,13,,,,,,6,3.386,100,001,2019_Mar_12_1148,test_run,3.0.6,60.00195474369203,
1,TDI,TDI_1_dag_150219.wav,,,2,rating_d_initial.csv,d,initial,,,,,0,1,1,1,0,0,0,0,0,5,5,0,,,,,,6,0.938,100,001,2019_Mar_12_1148,test_run,3.0.6,60.00195474369203,
23,TTI,TTI_23_toa_150219.wav,,,2,rating_d_initial.csv,d,initial,,,,,0,1,1,1,0,0,0,0,0,6,6,22,,,,,,5,1.554,100,001,2019_Mar_12_1148,test_run,3.0.6,60.00195474369203,
4,TDI,TDI_4_dam_150219.wav,,,2,rating_d_initial.csv,d,initial,,,,,0,1,1,1,0,0,0,0,0,7,7,3,,,,,,6,0.77,100,001,2019_Mar_12_1148,test_run,3.0.6,60.00195474369203,
16,TTI,TTI_16_ton_150219.wav,,,2,rating_d_initial.csv,d,initial,,,,,0,1,1,1,0,0,0,0,0,8,8,15,,,,,,2,0.52,100,001,2019_Mar_12_1148,test_run,3.0.6,60.00195474369203,
20,TTI,TTI_20_tur_150219.wav,,,2,rating_d_initial.csv,d,initial,,,,,0,1,1,1,0,0,0,0,0,9,9,19,,,,,,1,0.553,100,001,2019_Mar_12_1148,test_run,3.0.6,60.00195474369203,
6,TDI,TDI_6_deg_150219.wav,,,2,rating_d_initial.csv,d,initial,,,,,0,1,1,1,0,0,0,0,0,10,10,5,,,,,,6,1.07,100,001,2019_Mar_12_1148,test_run,3.0.6,60.00195474369203,
13,TDI,TDI_13_dog_150219.wav,,,2,rating_d_initial.csv,d,initial,,,,,0,1,1,1,0,0,0,0,0,11,11,12,,,,,,6,0.488,100,001,2019_Mar_12_1148,test_run,3.0.6,60.00195474369203,
12,TDI,TDI_12_doa_150219.wav,,,2,rating_d_initial.csv,d,initial,,,,,0,1,1,1,0,0,0,0,0,12,12,11,,,,,,7,0.503,100,001,2019_Mar_12_1148,test_run,3.0.6,60.00195474369203,
8,TDI,TDI_8_dia_150219.wav,,,2,rating_d_initial.csv,d,initial,,,,,0,1,1,1,0,0,0,0,0,13,13,7,,,,,,7,0.768,100,001,2019_Mar_12_1148,test_run,3.0.6,60.00195474369203,
25,TTI,TTI_25_taar_150219.wav,,,2,rating_d_initial.csv,d,initial,,,,,0,1,1,1,0,0,0,0,0,14,14,24,,,,,,5,1.503,100,001,2019_Mar_12_1148,test_run,3.0.6,60.00195474369203,
17,TTI,TTI_17_topp_150219.wav,,,2,rating_d_initial.csv,d,initial,,,,,0,1,1,1,0,0,0,0,0,15,15,16,,,,,,1,0.571,100,001,2019_Mar_12_1148,test_run,3.0.6,60.00195474369203,
22,TTI,TTI_22_ty_150219.wav,,,2,rating_d_initial.csv,d,initial,,,,,0,1,1,1,0,0,0,0,0,16,16,21,,,,,,2,3.837,100,001,2019_Mar_12_1148,test_run,3.0.6,60.00195474369203,
26,TTI,TTI_26_toe_150219.wav,,,2,rating_d_initial.csv,d,initial,,,,,0,1,1,1,0,0,0,0,0,17,17,25,,,,,,4,1.354,100,001,2019_Mar_12_1148,test_run,3.0.6,60.00195474369203,
11,TDI,TDI_11_dipp_150219.wav,,,2,rating_d_initial.csv,d,initial,,,,,0,1,1,1,0,0,0,0,0,18,18,10,,,,,,7,2.054,100,001,2019_Mar_12_1148,test_run,3.0.6,60.00195474369203,
18,TTI,TTI_18_tum_150219.wav,,,2,rating_d_initial.csv,d,initial,,,,,0,1,1,1,0,0,0,0,0,19,19,17,,,,,,2,1.103,100,001,2019_Mar_12_1148,test_run,3.0.6,60.00195474369203,
2,TDI,TDI_2_dagg_150219.wav,,,2,rating_d_initial.csv,d,initial,,,,,0,1,1,1,0,0,0,0,0,20,20,1,,,,,,7,0.504,100,001,2019_Mar_12_1148,test_run,3.0.6,60.00195474369203,
19,TTI,TTI_19_tun_150219.wav,,,2,rating_d_initial.csv,d,initial,,,,,0,1,1,1,0,0,0,0,0,21,21,18,,,,,,3,1.137,100,001,2019_Mar_12_1148,test_run,3.0.6,60.00195474369203,
10,TDI,TDI_10_ditt_150219.wav,,,2,rating_d_initial.csv,d,initial,,,,,0,1,1,1,0,0,0,0,0,22,22,9,,,,,,7,0.687,100,001,2019_Mar_12_1148,test_run,3.0.6,60.00195474369203,
9,TDI,TDI_9_dill_150219.wav,,,2,rating_d_initial.csv,d,initial,,,,,0,1,1,1,0,0,0,0,0,23,23,8,,,,,,7,0.703,100,001,2019_Mar_12_1148,test_run,3.0.6,60.00195474369203,
7,TDI,TDI_7_den_150219.wav,,,2,rating_d_initial.csv,d,initial,,,,,0,1,1,1,0,0,0,0,0,24,24,6,,,,,,7,0.654,100,001,2019_Mar_12_1148,test_run,3.0.6,60.00195474369203,
24,TTI,TTI_24_taack_150219.wav,,,2,rating_d_initial.csv,d,initial,,,,,0,1,1,1,0,0,0,0,0,25,25,23,,,,,,4,3.837,100,001,2019_Mar_12_1148,test_run,3.0.6,60.00195474369203,
3,TDI,TDI_3_dal_150219.wav,,,2,rating_d_initial.csv,d,initial,,,,,0,1,1,1,0,0,0,0,0,26,26,2,,,,,,7,0.554,100,001,2019_Mar_12_1148,test_run,3.0.6,60.00195474369203,
8,TTI,TTI_8_tia_150219.wav,,,2,rating_t_initial.csv,t,initial,,,,,0,1,1,1,0,1,1,1,0,0,0,7,,,,,,7,0.737,100,001,2019_Mar_12_1148,test_run,3.0.6,60.00195474369203,
17,TDI,TDI_17_dopp_150219.wav,,,2,rating_t_initial.csv,t,initial,,,,,0,1,1,1,0,1,1,1,0,1,1,16,,,,,,1,0.737,100,001,2019_Mar_12_1148,test_run,3.0.6,60.00195474369203,
22,TDI,TDI_22_dy_150219.wav,,,2,rating_t_initial.csv,t,initial,,,,,0,1,1,1,0,1,1,1,0,2,2,21,,,,,,1,0.688,100,001,2019_Mar_12_1148,test_run,3.0.6,60.00195474369203,
3,TTI,TTI_3_tal_150219.wav,,,2,rating_t_initial.csv,t,initial,,,,,0,1,1,1,0,1,1,1,0,3,3,2,,,,,,4,1.204,100,001,2019_Mar_12_1148,test_run,3.0.6,60.00195474369203,
18,TDI,TDI_18_dum_150219.wav,,,2,rating_t_initial.csv,t,initial,,,,,0,1,1,1,0,1,1,1,0,4,4,17,,,,,,1,0.637,100,001,2019_Mar_12_1148,test_run,3.0.6,60.00195474369203,
7,TTI,TTI_7_tenn_150219.wav,,,2,rating_t_initial.csv,t,initial,,,,,0,1,1,1,0,1,1,1,0,5,5,6,,,,,,1,1.587,100,001,2019_Mar_12_1148,test_run,3.0.6,60.00195474369203,
10,TTI,TTI_10_titt_150219.wav,,,2,rating_t_initial.csv,t,initial,,,,,0,1,1,1,0,1,1,1,0,6,6,9,,,,,,3,1.286,100,001,2019_Mar_12_1148,test_run,3.0.6,60.00195474369203,
16,TDI,TDI_16_don_150219.wav,,,2,rating_t_initial.csv,t,initial,,,,,0,1,1,1,0,1,1,1,0,7,7,15,,,,,,1,1.054,100,001,2019_Mar_12_1148,test_run,3.0.6,60.00195474369203,
1,TTI,TTI_1_tag_150219.wav,,,2,rating_t_initial.csv,t,initial,,,,,0,1,1,1,0,1,1,1,0,8,8,0,,,,,,4,1.62,100,001,2019_Mar_12_1148,test_run,3.0.6,60.00195474369203,
9,TTI,TTI_9_till_150219.wav,,,2,rating_t_initial.csv,t,initial,,,,,0,1,1,1,0,1,1,1,0,9,9,8,,,,,,2,0.721,100,001,2019_Mar_12_1148,test_run,3.0.6,60.00195474369203,
2,TTI,TTI_2_tagg_150219.wav,,,2,rating_t_initial.csv,t,initial,,,,,0,1,1,1,0,1,1,1,0,10,10,1,,,,,,2,3.17,100,001,2019_Mar_12_1148,test_run,3.0.6,60.00195474369203,
27,TDI,TDI_27_doem_edit_150219.wav,,,2,rating_t_initial.csv,t,initial,,,,,0,1,1,1,0,1,1,1,0,11,11,26,,,,,,1,0.487,100,001,2019_Mar_12_1148,test_run,3.0.6,60.00195474369203,
6,TTI,TTI_6_teg_150219.wav,,,2,rating_t_initial.csv,t,initial,,,,,0,1,1,1,0,1,1,1,0,12,12,5,,,,,,2,1.554,100,001,2019_Mar_12_1148,test_run,3.0.6,60.00195474369203,
20,TDI,TDI_20_dur_150219.wav,,,2,rating_t_initial.csv,t,initial,,,,,0,1,1,1,0,1,1,1,0,13,13,19,,,,,,1,0.636,100,001,2019_Mar_12_1148,test_run,3.0.6,60.00195474369203,
4,TTI,TTI_4_tam_150219.wav,,,2,rating_t_initial.csv,t,initial,,,,,0,1,1,1,0,1,1,1,0,14,14,3,,,,,,6,0.653,100,001,2019_Mar_12_1148,test_run,3.0.6,60.00195474369203,
13,TTI,TTI_13_tog_150219.wav,,,2,rating_t_initial.csv,t,initial,,,,,0,1,1,1,0,1,1,1,0,15,15,12,,,,,,6,1.236,100,001,2019_Mar_12_1148,test_run,3.0.6,60.00195474369203,
11,TTI,TTI_11_tipp_150219.wav,,,2,rating_t_initial.csv,t,initial,,,,,0,1,1,1,0,1,1,1,0,16,16,10,,,,,,7,0.937,100,001,2019_Mar_12_1148,test_run,3.0.6,60.00195474369203,
25,TDI,TDI_25_daar_150219.wav,,,2,rating_t_initial.csv,t,initial,,,,,0,1,1,1,0,1,1,1,0,17,17,24,,,,,,1,0.554,100,001,2019_Mar_12_1148,test_run,3.0.6,60.00195474369203,
5,TTI,TTI_5_tass_150219.wav,,,2,rating_t_initial.csv,t,initial,,,,,0,1,1,1,0,1,1,1,0,18,18,4,,,,,,2,0.554,100,001,2019_Mar_12_1148,test_run,3.0.6,60.00195474369203,
26,TDI,TDI_26_doe_150219.wav,,,2,rating_t_initial.csv,t,initial,,,,,0,1,1,1,0,1,1,1,0,19,19,25,,,,,,1,0.553,100,001,2019_Mar_12_1148,test_run,3.0.6,60.00195474369203,
21,TDI,TDI_21_dugg_150219.wav,,,2,rating_t_initial.csv,t,initial,,,,,0,1,1,1,0,1,1,1,0,20,20,20,,,,,,1,3.403,100,001,2019_Mar_12_1148,test_run,3.0.6,60.00195474369203,
19,TDI,TDI_19_dun_150219.wav,,,2,rating_t_initial.csv,t,initial,,,,,0,1,1,1,0,1,1,1,0,21,21,18,,,,,,1,0.904,100,001,2019_Mar_12_1148,test_run,3.0.6,60.00195474369203,
23,TDI,TDI_23_doa_150219.wav,,,2,rating_t_initial.csv,t,initial,,,,,0,1,1,1,0,1,1,1,0,22,22,22,,,,,,1,0.954,100,001,2019_Mar_12_1148,test_run,3.0.6,60.00195474369203,
12,TTI,TTI_12_toa_150219.wav,,,2,rating_t_initial.csv,t,initial,,,,,0,1,1,1,0,1,1,1,0,23,23,11,,,,,,6,1.27,100,001,2019_Mar_12_1148,test_run,3.0.6,60.00195474369203,
24,TDI,TDI_24_daack_150219.wav,,,2,rating_t_initial.csv,t,initial,,,,,0,1,1,1,0,1,1,1,0,24,24,23,,,,,,2,1.637,100,001,2019_Mar_12_1148,test_run,3.0.6,60.00195474369203,
15,TDI,TDI_15_dom_150219.wav,,,2,rating_t_initial.csv,t,initial,,,,,0,1,1,1,0,1,1,1,0,25,25,14,,,,,,1,0.453,100,001,2019_Mar_12_1148,test_run,3.0.6,60.00195474369203,
14,TTI,TTI_14_tok_150219.wav,,,2,rating_t_initial.csv,t,initial,,,,,0,1,1,1,0,1,1,1,0,26,26,13,,,,,,7,0.886,100,001,2019_Mar_12_1148,test_run,3.0.6,60.00195474369203,
