item,item_cond,sound,corr_ans,group,block_id,listname,rating_for,position,trials.thisRepN,trials.thisTrialN,trials.thisN,trials.thisIndex,run_block_type.thisRepN,run_block_type.thisTrialN,run_block_type.thisN,run_block_type.thisIndex,routine.thisRepN,routine.thisTrialN,routine.thisN,routine.thisIndex,rating_trials.thisRepN,rating_trials.thisTrialN,rating_trials.thisN,rating_trials.thisIndex,key_resp_1.keys,key_resp_1.rt,key_resp_2.keys,key_resp_2.corr,key_resp_2.rt,rating_1.response,rating_1.rt,participant,session,date,expName,psychopyVersion,frameRate,
,,,,,,,,,,,,,,,,,,,,,,,,,space,13.104052332000037,,,,,,101,001,2019_Mar_13_1033,test_run,3.0.6,60.003330784900996,
108,ENW,ENW_18_moalursena_150219.wav,n,t,,,,,0,0,0,107,,,,,,,,,,,,,,,n,1,4.302372687999991,,,101,001,2019_Mar_13_1033,test_run,3.0.6,60.003330784900996,
117,ENW,ENW_27_lyssvinner_150219.wav,n,t,,,,,0,1,1,116,,,,,,,,,,,,,,,n,1,2.4692244310000433,,,101,001,2019_Mar_13_1033,test_run,3.0.6,60.003330784900996,
125,ENW,ENW_35_nymaljen_150219.wav,n,t,,,,,0,2,2,124,,,,,,,,,,,,,,,n,1,2.23573460099999,,,101,001,2019_Mar_13_1033,test_run,3.0.6,60.003330784900996,
17,ETW,ETW_17_hemmavid_070319.wav,j,t,,,,,0,3,3,16,,,,,,,,,,,,,,,j,1,2.169651861000034,,,101,001,2019_Mar_13_1033,test_run,3.0.6,60.003330784900996,
127,ENW,ENW_37_spallrivet_150219.wav,n,t,,,,,0,4,4,126,,,,,,,,,,,,,,,n,1,1.7363165199999457,,,101,001,2019_Mar_13_1033,test_run,3.0.6,60.003330784900996,
46,EFW,EFW_16_lyssna_070319.wav,j,t,,,,,0,5,5,45,,,,,,,,,,,,,,,j,1,1.836106209000036,,,101,001,2019_Mar_13_1033,test_run,3.0.6,60.003330784900996,
40,EFW,EFW_10_laarare_070319.wav,j,t,,,,,0,6,6,39,,,,,,,,,,,,,,,j,1,1.6860839269999133,,,101,001,2019_Mar_13_1033,test_run,3.0.6,60.003330784900996,
104,ENW,ENW_14_kärmenor_150219.wav,n,t,,,,,0,7,7,103,,,,,,,,,,,,,,,n,1,2.1860340910000104,,,101,001,2019_Mar_13_1033,test_run,3.0.6,60.003330784900996,
141,ENW,ENW_51_skillare_150219.wav,n,t,,,,,0,8,8,140,,,,,,,,,,,,,,,n,1,2.8355650620000006,,,101,001,2019_Mar_13_1033,test_run,3.0.6,60.003330784900996,
58,EFW,EFW_28_olja_070319.wav,j,t,,,,,0,9,9,57,,,,,,,,,,,,,,,j,1,1.2696319369999856,,,101,001,2019_Mar_13_1033,test_run,3.0.6,60.003330784900996,
27,ETW,ETW_27_medellivslaangd_070319.wav,j,t,,,,,0,10,10,26,,,,,,,,,,,,,,,j,1,1.7196294770000122,,,101,001,2019_Mar_13_1033,test_run,3.0.6,60.003330784900996,
14,ETW,ETW_14_myriad_070319.wav,j,t,,,,,0,11,11,13,,,,,,,,,,,,,,,j,1,2.1697189019999996,,,101,001,2019_Mar_13_1033,test_run,3.0.6,60.003330784900996,
162,ENW,ENW_72_urskecken_150219.wav,n,t,,,,,0,12,12,161,,,,,,,,,,,,,,,n,1,1.833802285000047,,,101,001,2019_Mar_13_1033,test_run,3.0.6,60.003330784900996,
116,ENW,ENW_26_anufera_150219.wav,n,t,,,,,0,13,13,115,,,,,,,,,,,,,,,n,1,2.4361931070000082,,,101,001,2019_Mar_13_1033,test_run,3.0.6,60.003330784900996,
83,EFW,EFW_53_sovrum_070319.wav,j,t,,,,,0,14,14,82,,,,,,,,,,,,,,,j,1,1.5528693790000716,,,101,001,2019_Mar_13_1033,test_run,3.0.6,60.003330784900996,
7,ETW,ETW_7_hemland_070319.wav,j,t,,,,,0,15,15,6,,,,,,,,,,,,,,,j,1,1.5021374670000114,,,101,001,2019_Mar_13_1033,test_run,3.0.6,60.003330784900996,
150,ENW,ENW_60_lackpenar_150219.wav,n,t,,,,,0,16,16,149,,,,,,,,,,,,,,,n,1,1.6691434979999258,,,101,001,2019_Mar_13_1033,test_run,3.0.6,60.003330784900996,
132,ENW,ENW_42_hamsforing_150219.wav,n,t,,,,,0,17,17,131,,,,,,,,,,,,,,,n,1,1.6858775600001081,,,101,001,2019_Mar_13_1033,test_run,3.0.6,60.003330784900996,
20,ETW,ETW_20_loppmarknad_070319.wav,j,t,,,,,0,18,18,19,,,,,,,,,,,,,,,j,1,1.4025916289999714,,,101,001,2019_Mar_13_1033,test_run,3.0.6,60.003330784900996,
4,ETW,ETW_4_livraadd_070319.wav,j,t,,,,,0,19,19,3,,,,,,,,,,,,,,,j,1,1.3693801250000206,,,101,001,2019_Mar_13_1033,test_run,3.0.6,60.003330784900996,
25,ETW,ETW_25_mikrosekund_070319.wav,j,t,,,,,0,20,20,24,,,,,,,,,,,,,,,j,1,1.5025777380000136,,,101,001,2019_Mar_13_1033,test_run,3.0.6,60.003330784900996,
122,ENW,ENW_32_fonering_150219.wav,n,t,,,,,0,21,21,121,,,,,,,,,,,,,,,n,1,2.0864169909999646,,,101,001,2019_Mar_13_1033,test_run,3.0.6,60.003330784900996,
156,ENW,ENW_66_voarsmenar_150219.wav,n,t,,,,,0,22,22,155,,,,,,,,,,,,,,,n,1,1.5197043910000048,,,101,001,2019_Mar_13_1033,test_run,3.0.6,60.003330784900996,
123,ENW,ENW_33_froamation_150219.wav,n,t,,,,,0,23,23,122,,,,,,,,,,,,,,,n,1,3.0358725969999796,,,101,001,2019_Mar_13_1033,test_run,3.0.6,60.003330784900996,
62,EFW,EFW_32_fyller_070319.wav,j,t,,,,,0,24,24,61,,,,,,,,,,,,,,,n,0,1.9364237419999881,,,101,001,2019_Mar_13_1033,test_run,3.0.6,60.003330784900996,
30,ETW,ETW_30_oeverlevnad_070319.wav,j,t,,,,,0,25,25,29,,,,,,,,,,,,,,,j,1,1.419417056000043,,,101,001,2019_Mar_13_1033,test_run,3.0.6,60.003330784900996,
88,EFW,EFW_58_examen_070319.wav,j,t,,,,,0,26,26,87,,,,,,,,,,,,,,,j,1,1.2860072959999798,,,101,001,2019_Mar_13_1033,test_run,3.0.6,60.003330784900996,
145,ENW,ENW_55_invaskin_150219.wav,n,t,,,,,0,27,27,144,,,,,,,,,,,,,,,n,1,2.5024712520000776,,,101,001,2019_Mar_13_1033,test_run,3.0.6,60.003330784900996,
18,ETW,ETW_18_husfasad_070319.wav,j,t,,,,,0,28,28,17,,,,,,,,,,,,,,,j,1,1.3192598860000544,,,101,001,2019_Mar_13_1033,test_run,3.0.6,60.003330784900996,
63,EFW,EFW_33_elva_070319.wav,j,t,,,,,0,29,29,62,,,,,,,,,,,,,,,j,1,1.3860228720000123,,,101,001,2019_Mar_13_1033,test_run,3.0.6,60.003330784900996,
160,ENW,ENW_70_roklarner_150219.wav,n,t,,,,,0,30,30,159,,,,,,,,,,,,,,,n,1,1.3526925639999945,,,101,001,2019_Mar_13_1033,test_run,3.0.6,60.003330784900996,
70,EFW,EFW_40_miljoner_070319.wav,j,t,,,,,0,31,31,69,,,,,,,,,,,,,,,j,1,1.3358604720000358,,,101,001,2019_Mar_13_1033,test_run,3.0.6,60.003330784900996,
31,EFW,EFW_1_allmaan_070319.wav,j,t,,,,,0,32,32,30,,,,,,,,,,,,,,,j,1,1.2029904980000765,,,101,001,2019_Mar_13_1033,test_run,3.0.6,60.003330784900996,
137,ENW,ENW_47_oafläppen_150219.wav,n,t,,,,,0,33,33,136,,,,,,,,,,,,,,,n,1,1.2187574030000405,,,101,001,2019_Mar_13_1033,test_run,3.0.6,60.003330784900996,
175,ENW,ENW_85_forlinna_150219.wav,n,t,,,,,0,34,34,174,,,,,,,,,,,,,,,n,1,1.2021630429999277,,,101,001,2019_Mar_13_1033,test_run,3.0.6,60.003330784900996,
94,ENW,ENW_4_kyllfaren_150219.wav,n,t,,,,,0,35,35,93,,,,,,,,,,,,,,,n,1,1.5856644250000045,,,101,001,2019_Mar_13_1033,test_run,3.0.6,60.003330784900996,
81,EFW,EFW_51_seminarier_070319.wav,j,t,,,,,0,36,36,80,,,,,,,,,,,,,,,j,1,1.3692584359999955,,,101,001,2019_Mar_13_1033,test_run,3.0.6,60.003330784900996,
60,EFW,EFW_30_officiella_070319.wav,j,t,,,,,0,37,37,59,,,,,,,,,,,,,,,j,1,1.3360160789999327,,,101,001,2019_Mar_13_1033,test_run,3.0.6,60.003330784900996,
155,ENW,ENW_65_hamfylla_150219.wav,n,t,,,,,0,38,38,154,,,,,,,,,,,,,,,n,1,1.3692062400000395,,,101,001,2019_Mar_13_1033,test_run,3.0.6,60.003330784900996,
47,EFW,EFW_17_januari_070319.wav,j,t,,,,,0,39,39,46,,,,,,,,,,,,,,,j,1,1.1504843530000244,,,101,001,2019_Mar_13_1033,test_run,3.0.6,60.003330784900996,
64,EFW,EFW_34_sommar_070319.wav,j,t,,,,,0,40,40,63,,,,,,,,,,,,,,,j,1,1.085864689999994,,,101,001,2019_Mar_13_1033,test_run,3.0.6,60.003330784900996,
2,ETW,ETW_2_skillnad_070319.wav,j,t,,,,,0,41,41,1,,,,,,,,,,,,,,,j,1,35.15193620000002,,,101,001,2019_Mar_13_1033,test_run,3.0.6,60.003330784900996,
97,ENW,ENW_7_flasera_150219.wav,n,t,,,,,0,42,42,96,,,,,,,,,,,,,,,n,1,2.918915992000052,,,101,001,2019_Mar_13_1033,test_run,3.0.6,60.003330784900996,
85,EFW,EFW_55_oroar_070319.wav,j,t,,,,,0,43,43,84,,,,,,,,,,,,,,,j,1,1.102541902999974,,,101,001,2019_Mar_13_1033,test_run,3.0.6,60.003330784900996,
15,ETW,ETW_15_knivsudd_070319.wav,j,t,,,,,0,44,44,14,,,,,,,,,,,,,,,j,1,3.0521928890000254,,,101,001,2019_Mar_13_1033,test_run,3.0.6,60.003330784900996,
130,ENW,ENW_40_knipackar_150219.wav,n,t,,,,,0,45,45,129,,,,,,,,,,,,,,,n,1,2.38551581899992,,,101,001,2019_Mar_13_1033,test_run,3.0.6,60.003330784900996,
98,ENW,ENW_8_haväras_150219.wav,n,t,,,,,0,46,46,97,,,,,,,,,,,,,,,n,1,3.31899712500001,,,101,001,2019_Mar_13_1033,test_run,3.0.6,60.003330784900996,
171,ENW,ENW_81_persifera_150219.wav,n,t,,,,,0,47,47,170,,,,,,,,,,,,,,,n,1,1.5359504900000047,,,101,001,2019_Mar_13_1033,test_run,3.0.6,60.003330784900996,
144,ENW,ENW_54_lomering_150219.wav,n,t,,,,,0,48,48,143,,,,,,,,,,,,,,,n,1,1.9026017749999937,,,101,001,2019_Mar_13_1033,test_run,3.0.6,60.003330784900996,
73,EFW,EFW_43_halvoar_070319.wav,j,t,,,,,0,49,49,72,,,,,,,,,,,,,,,j,1,1.186856134999971,,,101,001,2019_Mar_13_1033,test_run,3.0.6,60.003330784900996,
43,EFW,EFW_13_elever_070319.wav,j,t,,,,,0,50,50,42,,,,,,,,,,,,,,,j,1,1.1196381990000646,,,101,001,2019_Mar_13_1033,test_run,3.0.6,60.003330784900996,
169,ENW,ENW_79_lyxmare_150219.wav,n,t,,,,,0,51,51,168,,,,,,,,,,,,,,,n,1,1.8859291119999853,,,101,001,2019_Mar_13_1033,test_run,3.0.6,60.003330784900996,
76,EFW,EFW_46_foerhoer_070319.wav,j,t,,,,,0,52,52,75,,,,,,,,,,,,,,,j,1,1.1526750900000025,,,101,001,2019_Mar_13_1033,test_run,3.0.6,60.003330784900996,
179,ENW,ENW_89_mikenspoan_150219.wav,n,t,,,,,0,53,53,178,,,,,,,,,,,,,,,n,1,2.518534369000008,,,101,001,2019_Mar_13_1033,test_run,3.0.6,60.003330784900996,
161,ENW,ENW_71_forskäckla_150219.wav,n,t,,,,,0,54,54,160,,,,,,,,,,,,,,,n,1,2.669370230000027,,,101,001,2019_Mar_13_1033,test_run,3.0.6,60.003330784900996,
5,ETW,ETW_5_skepnad_070319.wav,j,t,,,,,0,55,55,4,,,,,,,,,,,,,,,j,1,1.3863666559999501,,,101,001,2019_Mar_13_1033,test_run,3.0.6,60.003330784900996,
112,ENW,ENW_22_fjäserna_150219.wav,n,t,,,,,0,56,56,111,,,,,,,,,,,,,,,n,1,2.652458120999995,,,101,001,2019_Mar_13_1033,test_run,3.0.6,60.003330784900996,
95,ENW,ENW_5_spoamisk_150219.wav,n,t,,,,,0,57,57,94,,,,,,,,,,,,,,,n,1,1.6193218209999714,,,101,001,2019_Mar_13_1033,test_run,3.0.6,60.003330784900996,
178,ENW,ENW_88_marsifen_150219.wav,n,t,,,,,0,58,58,177,,,,,,,,,,,,,,,n,1,1.8690580579999505,,,101,001,2019_Mar_13_1033,test_run,3.0.6,60.003330784900996,
143,ENW,ENW_53_svarmvisso_150219.wav,n,t,,,,,0,59,59,142,,,,,,,,,,,,,,,n,1,1.702917833000015,,,101,001,2019_Mar_13_1033,test_run,3.0.6,60.003330784900996,
96,ENW,ENW_6_vilfroaser_150219.wav,n,t,,,,,0,60,60,95,,,,,,,,,,,,,,,n,1,1.8021817300000293,,,101,001,2019_Mar_13_1033,test_run,3.0.6,60.003330784900996,
139,ENW,ENW_49_hälskrena_150219.wav,n,t,,,,,0,61,61,138,,,,,,,,,,,,,,,n,1,3.169027003999986,,,101,001,2019_Mar_13_1033,test_run,3.0.6,60.003330784900996,
111,ENW,ENW_21_tjulning_150219.wav,n,t,,,,,0,62,62,110,,,,,,,,,,,,,,,j,0,1.4527543450000167,,,101,001,2019_Mar_13_1033,test_run,3.0.6,60.003330784900996,
53,EFW,EFW_23_aamne_070319.wav,j,t,,,,,0,63,63,52,,,,,,,,,,,,,,,j,1,0.8524754279999343,,,101,001,2019_Mar_13_1033,test_run,3.0.6,60.003330784900996,
3,ETW,ETW_3_choklad_070319.wav,j,t,,,,,0,64,64,2,,,,,,,,,,,,,,,j,1,1.13580505799996,,,101,001,2019_Mar_13_1033,test_run,3.0.6,60.003330784900996,
154,ENW,ENW_64_havskvare_150219.wav,n,t,,,,,0,65,65,153,,,,,,,,,,,,,,,n,1,2.3026782560000356,,,101,001,2019_Mar_13_1033,test_run,3.0.6,60.003330784900996,
165,ENW,ENW_75_foarskining_150219.wav,n,t,,,,,0,66,66,164,,,,,,,,,,,,,,,n,1,2.967105867999976,,,101,001,2019_Mar_13_1033,test_run,3.0.6,60.003330784900996,
113,ENW,ENW_23_allsänning_150219.wav,n,t,,,,,0,67,67,112,,,,,,,,,,,,,,,n,1,1.8356721679999737,,,101,001,2019_Mar_13_1033,test_run,3.0.6,60.003330784900996,
87,EFW,EFW_57_loenerna_070319.wav,j,t,,,,,0,68,68,86,,,,,,,,,,,,,,,j,1,1.2197952870000108,,,101,001,2019_Mar_13_1033,test_run,3.0.6,60.003330784900996,
36,EFW,EFW_6_massa_070319.wav,j,t,,,,,0,69,69,35,,,,,,,,,,,,,,,j,1,1.252985150000086,,,101,001,2019_Mar_13_1033,test_run,3.0.6,60.003330784900996,
103,ENW,ENW_13_forvaron_150219.wav,n,t,,,,,0,70,70,102,,,,,,,,,,,,,,,n,1,2.5696147790000623,,,101,001,2019_Mar_13_1033,test_run,3.0.6,60.003330784900996,
56,EFW,EFW_26_armarna_070319.wav,j,t,,,,,0,71,71,55,,,,,,,,,,,,,,,j,1,1.167219799999998,,,101,001,2019_Mar_13_1033,test_run,3.0.6,60.003330784900996,
115,ENW,ENW_25_affierar_150219.wav,n,t,,,,,0,72,72,114,,,,,,,,,,,,,,,j,0,4.087453701999948,,,101,001,2019_Mar_13_1033,test_run,3.0.6,60.003330784900996,
176,ENW,ENW_86_heloppsin_150219.wav,n,t,,,,,0,73,73,175,,,,,,,,,,,,,,,n,1,1.7194236960000353,,,101,001,2019_Mar_13_1033,test_run,3.0.6,60.003330784900996,
134,ENW,ENW_44_inlivna_150219.wav,n,t,,,,,0,74,74,133,,,,,,,,,,,,,,,n,1,1.903083391999985,,,101,001,2019_Mar_13_1033,test_run,3.0.6,60.003330784900996,
142,ENW,ENW_52_filofyll_150219.wav,n,t,,,,,0,75,75,141,,,,,,,,,,,,,,,n,1,1.552628747999961,,,101,001,2019_Mar_13_1033,test_run,3.0.6,60.003330784900996,
13,ETW,ETW_13_oevervoald_070319.wav,j,t,,,,,0,76,76,12,,,,,,,,,,,,,,,j,1,1.369195469000033,,,101,001,2019_Mar_13_1033,test_run,3.0.6,60.003330784900996,
34,EFW,EFW_4_foerminska_070319.wav,j,t,,,,,0,77,77,33,,,,,,,,,,,,,,,j,1,1.1863460540000688,,,101,001,2019_Mar_13_1033,test_run,3.0.6,60.003330784900996,
93,ENW,ENW_3_vissorens_150219.wav,n,t,,,,,0,78,78,92,,,,,,,,,,,,,,,n,1,1.402928447000022,,,101,001,2019_Mar_13_1033,test_run,3.0.6,60.003330784900996,
133,ENW,ENW_43_axalän_150219.wav,n,t,,,,,0,79,79,132,,,,,,,,,,,,,,,n,1,1.3027612910000244,,,101,001,2019_Mar_13_1033,test_run,3.0.6,60.003330784900996,
57,EFW,EFW_27_analysera_070319.wav,j,t,,,,,0,80,80,56,,,,,,,,,,,,,,,j,1,1.1856933860000254,,,101,001,2019_Mar_13_1033,test_run,3.0.6,60.003330784900996,
78,EFW,EFW_48_varifroan_070319.wav,j,t,,,,,0,81,81,77,,,,,,,,,,,,,,,j,1,1.1687084870000035,,,101,001,2019_Mar_13_1033,test_run,3.0.6,60.003330784900996,
126,ENW,ENW_36_skymlosa_150219.wav,n,t,,,,,0,82,82,125,,,,,,,,,,,,,,,n,1,1.4188844269999663,,,101,001,2019_Mar_13_1033,test_run,3.0.6,60.003330784900996,
42,EFW,EFW_12_foeremoal_070319.wav,j,t,,,,,0,83,83,41,,,,,,,,,,,,,,,j,1,1.086503695000033,,,101,001,2019_Mar_13_1033,test_run,3.0.6,60.003330784900996,
159,ENW,ENW_69_mjohusa_150219.wav,n,t,,,,,0,84,84,158,,,,,,,,,,,,,,,n,1,1.8838536419999627,,,101,001,2019_Mar_13_1033,test_run,3.0.6,60.003330784900996,
177,ENW,ENW_87_kloavare_150219.wav,n,t,,,,,0,85,85,176,,,,,,,,,,,,,,,n,1,1.7690819430000602,,,101,001,2019_Mar_13_1033,test_run,3.0.6,60.003330784900996,
163,ENW,ENW_73_vimmankalla_150219.wav,n,t,,,,,0,86,86,162,,,,,,,,,,,,,,,n,1,1.836116946000061,,,101,001,2019_Mar_13_1033,test_run,3.0.6,60.003330784900996,
24,ETW,ETW_24_oeverfloed_070319.wav,j,t,,,,,0,87,87,23,,,,,,,,,,,,,,,j,1,1.4194015629999512,,,101,001,2019_Mar_13_1033,test_run,3.0.6,60.003330784900996,
91,ENW,ENW_1_norsimerar_150219.wav,n,t,,,,,0,88,88,90,,,,,,,,,,,,,,,n,1,1.4193796629999724,,,101,001,2019_Mar_13_1033,test_run,3.0.6,60.003330784900996,
75,EFW,EFW_45_innanfoer_070319.wav,j,t,,,,,0,89,89,74,,,,,,,,,,,,,,,j,1,1.2863514670000313,,,101,001,2019_Mar_13_1033,test_run,3.0.6,60.003330784900996,
52,EFW,EFW_22_normala_070319.wav,j,t,,,,,0,90,90,51,,,,,,,,,,,,,,,j,1,1.2025833169999487,,,101,001,2019_Mar_13_1033,test_run,3.0.6,60.003330784900996,
106,ENW,ENW_16_rolinkar_150219.wav,n,t,,,,,0,91,91,105,,,,,,,,,,,,,,,n,1,1.619749130999935,,,101,001,2019_Mar_13_1033,test_run,3.0.6,60.003330784900996,
167,ENW,ENW_77_somfera_150219.wav,n,t,,,,,0,92,92,166,,,,,,,,,,,,,,,n,1,1.2699019430000362,,,101,001,2019_Mar_13_1033,test_run,3.0.6,60.003330784900996,
44,EFW,EFW_14_foersoeken_070319.wav,j,t,,,,,0,93,93,43,,,,,,,,,,,,,,,j,1,1.6191494240000566,,,101,001,2019_Mar_13_1033,test_run,3.0.6,60.003330784900996,
151,ENW,ENW_61_myckskina_150219.wav,n,t,,,,,0,94,94,150,,,,,,,,,,,,,,,n,1,2.135803671999952,,,101,001,2019_Mar_13_1033,test_run,3.0.6,60.003330784900996,
100,ENW,ENW_10_skinnamer_150219.wav,n,t,,,,,0,95,95,99,,,,,,,,,,,,,,,n,1,1.4189219790000607,,,101,001,2019_Mar_13_1033,test_run,3.0.6,60.003330784900996,
59,EFW,EFW_29_formen_070319.wav,j,t,,,,,0,96,96,58,,,,,,,,,,,,,,,j,1,1.252820210999971,,,101,001,2019_Mar_13_1033,test_run,3.0.6,60.003330784900996,
71,EFW,EFW_41_infinna_070319.wav,j,t,,,,,0,97,97,70,,,,,,,,,,,,,,,j,1,1.1525220280000212,,,101,001,2019_Mar_13_1033,test_run,3.0.6,60.003330784900996,
102,ENW,ENW_12_snälmola_150219.wav,n,t,,,,,0,98,98,101,,,,,,,,,,,,,,,n,1,1.5693295380000336,,,101,001,2019_Mar_13_1033,test_run,3.0.6,60.003330784900996,
41,EFW,EFW_11_maanniskor_070319.wav,j,t,,,,,0,99,99,40,,,,,,,,,,,,,,,j,1,1.185516866999933,,,101,001,2019_Mar_13_1033,test_run,3.0.6,60.003330784900996,
124,ENW,ENW_34_jomera_150219.wav,n,t,,,,,0,100,100,123,,,,,,,,,,,,,,,n,1,1.719190200000071,,,101,001,2019_Mar_13_1033,test_run,3.0.6,60.003330784900996,
67,EFW,EFW_37_foervisso_070319.wav,j,t,,,,,0,101,101,66,,,,,,,,,,,,,,,j,1,1.1858281669999542,,,101,001,2019_Mar_13_1033,test_run,3.0.6,60.003330784900996,
35,EFW,EFW_5_samhaalle_070319.wav,j,t,,,,,0,102,102,34,,,,,,,,,,,,,,,j,1,1.3190294130000666,,,101,001,2019_Mar_13_1033,test_run,3.0.6,60.003330784900996,
149,ENW,ENW_59_kyrkmänning_150219.wav,n,t,,,,,0,103,103,148,,,,,,,,,,,,,,,n,1,3.635900386000003,,,101,001,2019_Mar_13_1033,test_run,3.0.6,60.003330784900996,
120,ENW,ENW_30_sojera_150219.wav,n,t,,,,,0,104,104,119,,,,,,,,,,,,,,,n,1,1.1358306170000105,,,101,001,2019_Mar_13_1033,test_run,3.0.6,60.003330784900996,
84,EFW,EFW_54_romaner_070319.wav,j,t,,,,,0,105,105,83,,,,,,,,,,,,,,,j,1,1.1522280660000206,,,101,001,2019_Mar_13_1033,test_run,3.0.6,60.003330784900996,
66,EFW,EFW_36_haarifroan_070319.wav,j,t,,,,,0,106,106,65,,,,,,,,,,,,,,,j,1,1.183825961000025,,,101,001,2019_Mar_13_1033,test_run,3.0.6,60.003330784900996,
1,ETW,ETW_1_oskuld_070319.wav,j,t,,,,,0,107,107,0,,,,,,,,,,,,,,,j,1,5.566895188999979,,,101,001,2019_Mar_13_1033,test_run,3.0.6,60.003330784900996,
114,ENW,ENW_24_samjoner_150219.wav,n,t,,,,,0,108,108,113,,,,,,,,,,,,,,,n,1,1.452528038999958,,,101,001,2019_Mar_13_1033,test_run,3.0.6,60.003330784900996,
49,EFW,EFW_19_roerelse_070319.wav,j,t,,,,,0,109,109,48,,,,,,,,,,,,,,,j,1,1.2523424879999538,,,101,001,2019_Mar_13_1033,test_run,3.0.6,60.003330784900996,
22,ETW,ETW_22_sinnesfrid_070319.wav,j,t,,,,,0,110,110,21,,,,,,,,,,,,,,,j,1,2.4357534079999823,,,101,001,2019_Mar_13_1033,test_run,3.0.6,60.003330784900996,
8,ETW,ETW_8_samfund_070319.wav,j,t,,,,,0,111,111,7,,,,,,,,,,,,,,,j,1,1.485844807000035,,,101,001,2019_Mar_13_1033,test_run,3.0.6,60.003330784900996,
86,EFW,EFW_56_mormor_070319.wav,j,t,,,,,0,112,112,85,,,,,,,,,,,,,,,j,1,1.1525544929999114,,,101,001,2019_Mar_13_1033,test_run,3.0.6,60.003330784900996,
148,ENW,ENW_58_malvossa_150219.wav,n,t,,,,,0,113,113,147,,,,,,,,,,,,,,,n,1,1.418946118000008,,,101,001,2019_Mar_13_1033,test_run,3.0.6,60.003330784900996,
158,ENW,ENW_68_presionar_150219.wav,n,t,,,,,0,114,114,157,,,,,,,,,,,,,,,n,1,1.3698350309999796,,,101,001,2019_Mar_13_1033,test_run,3.0.6,60.003330784900996,
32,EFW,EFW_2_snarare_070319.wav,j,t,,,,,0,115,115,31,,,,,,,,,,,,,,,j,1,1.4531087190000562,,,101,001,2019_Mar_13_1033,test_run,3.0.6,60.003330784900996,
9,ETW,ETW_9_haarmed_070319.wav,j,t,,,,,0,116,116,8,,,,,,,,,,,,,,,j,1,1.1692816920000269,,,101,001,2019_Mar_13_1033,test_run,3.0.6,60.003330784900996,
45,EFW,EFW_15_oeverens_070319.wav,j,t,,,,,0,117,117,44,,,,,,,,,,,,,,,j,1,1.16918380300001,,,101,001,2019_Mar_13_1033,test_run,3.0.6,60.003330784900996,
39,EFW,EFW_9_infektion_070319.wav,j,t,,,,,0,118,118,38,,,,,,,,,,,,,,,j,1,1.219346069999915,,,101,001,2019_Mar_13_1033,test_run,3.0.6,60.003330784900996,
23,ETW,ETW_23_promenad_070319.wav,j,t,,,,,0,119,119,22,,,,,,,,,,,,,,,j,1,1.0357919949999541,,,101,001,2019_Mar_13_1033,test_run,3.0.6,60.003330784900996,
153,ENW,ENW_63_femyrisk_150219.wav,n,t,,,,,0,120,120,152,,,,,,,,,,,,,,,n,1,1.783536738999942,,,101,001,2019_Mar_13_1033,test_run,3.0.6,60.003330784900996,
173,ENW,ENW_83_fyrskovar_150219.wav,n,t,,,,,0,121,121,172,,,,,,,,,,,,,,,n,1,1.6189753689999407,,,101,001,2019_Mar_13_1033,test_run,3.0.6,60.003330784900996,
170,ENW,ENW_80_tjarfera_150219.wav,n,t,,,,,0,122,122,169,,,,,,,,,,,,,,,n,1,2.0524894819999417,,,101,001,2019_Mar_13_1033,test_run,3.0.6,60.003330784900996,
38,EFW,EFW_8_samman_070319.wav,j,t,,,,,0,123,123,37,,,,,,,,,,,,,,,j,1,1.4028129359999184,,,101,001,2019_Mar_13_1033,test_run,3.0.6,60.003330784900996,
48,EFW,EFW_18_nummer_070319.wav,j,t,,,,,0,124,124,47,,,,,,,,,,,,,,,j,1,1.06927206499995,,,101,001,2019_Mar_13_1033,test_run,3.0.6,60.003330784900996,
146,ENW,ENW_56_lysskarna_150219.wav,n,t,,,,,0,125,125,145,,,,,,,,,,,,,,,n,1,1.2355087749999711,,,101,001,2019_Mar_13_1033,test_run,3.0.6,60.003330784900996,
119,ENW,ENW_29_uppskira_150219.wav,n,t,,,,,0,126,126,118,,,,,,,,,,,,,,,n,1,1.2529806449999796,,,101,001,2019_Mar_13_1033,test_run,3.0.6,60.003330784900996,
82,EFW,EFW_52_framhoalla_070319.wav,j,t,,,,,0,127,127,81,,,,,,,,,,,,,,,j,1,1.2025744059999397,,,101,001,2019_Mar_13_1033,test_run,3.0.6,60.003330784900996,
174,ENW,ENW_84_hurmarna_150219.wav,n,t,,,,,0,128,128,173,,,,,,,,,,,,,,,n,1,1.3836585259999765,,,101,001,2019_Mar_13_1033,test_run,3.0.6,60.003330784900996,
21,ETW,ETW_21_marmelad_070319.wav,j,t,,,,,0,129,129,20,,,,,,,,,,,,,,,j,1,1.5366427170000634,,,101,001,2019_Mar_13_1033,test_run,3.0.6,60.003330784900996,
135,ENW,ENW_45_fammoarens_150219.wav,n,t,,,,,0,130,130,134,,,,,,,,,,,,,,,n,1,2.4525221339999916,,,101,001,2019_Mar_13_1033,test_run,3.0.6,60.003330784900996,
10,ETW,ETW_10_nomad_070319.wav,j,t,,,,,0,131,131,9,,,,,,,,,,,,,,,j,1,1.502694859999906,,,101,001,2019_Mar_13_1033,test_run,3.0.6,60.003330784900996,
136,ENW,ENW_46_pommera_150219.wav,n,t,,,,,0,132,132,135,,,,,,,,,,,,,,,n,1,2.8854486980000047,,,101,001,2019_Mar_13_1033,test_run,3.0.6,60.003330784900996,
72,EFW,EFW_42_naavaron_070319.wav,j,t,,,,,0,133,133,71,,,,,,,,,,,,,,,j,1,1.3361465589999852,,,101,001,2019_Mar_13_1033,test_run,3.0.6,60.003330784900996,
6,ETW,ETW_6_vemod_070319.wav,j,t,,,,,0,134,134,5,,,,,,,,,,,,,,,j,1,1.369772846999922,,,101,001,2019_Mar_13_1033,test_run,3.0.6,60.003330784900996,
89,EFW,EFW_59_filosofin_070319.wav,j,t,,,,,0,135,135,88,,,,,,,,,,,,,,,j,1,1.4504032859999825,,,101,001,2019_Mar_13_1033,test_run,3.0.6,60.003330784900996,
77,EFW,EFW_47_invoanare_070319.wav,j,t,,,,,0,136,136,76,,,,,,,,,,,,,,,j,1,1.1835742419999633,,,101,001,2019_Mar_13_1033,test_run,3.0.6,60.003330784900996,
121,ENW,ENW_31_romation_150219.wav,n,t,,,,,0,137,137,120,,,,,,,,,,,,,,,n,1,1.2192378810000264,,,101,001,2019_Mar_13_1033,test_run,3.0.6,60.003330784900996,
80,EFW,EFW_50_snaalla_070319.wav,j,t,,,,,0,138,138,79,,,,,,,,,,,,,,,j,1,1.2188666020000483,,,101,001,2019_Mar_13_1033,test_run,3.0.6,60.003330784900996,
69,EFW,EFW_39_foersvara_070319.wav,j,t,,,,,0,139,139,68,,,,,,,,,,,,,,,j,1,1.0688757149999901,,,101,001,2019_Mar_13_1033,test_run,3.0.6,60.003330784900996,
16,ETW,ETW_16_episod_070319.wav,j,t,,,,,0,140,140,15,,,,,,,,,,,,,,,j,1,1.2189500279999947,,,101,001,2019_Mar_13_1033,test_run,3.0.6,60.003330784900996,
129,ENW,ENW_39_ljusonar_150219.wav,n,t,,,,,0,141,141,128,,,,,,,,,,,,,,,n,1,1.8835587970000915,,,101,001,2019_Mar_13_1033,test_run,3.0.6,60.003330784900996,
107,ENW,ENW_17_kopynnor_150219.wav,n,t,,,,,0,142,142,106,,,,,,,,,,,,,,,n,1,1.935772676000056,,,101,001,2019_Mar_13_1033,test_run,3.0.6,60.003330784900996,
19,ETW,ETW_19_saallskapshund_070319.wav,j,t,,,,,0,143,143,18,,,,,,,,,,,,,,,j,1,2.402491912000073,,,101,001,2019_Mar_13_1033,test_run,3.0.6,60.003330784900996,
12,ETW,ETW_12_offerlund_070319.wav,j,t,,,,,0,144,144,11,,,,,,,,,,,,,,,j,1,2.402294103000031,,,101,001,2019_Mar_13_1033,test_run,3.0.6,60.003330784900996,
54,EFW,EFW_24_foersvinner_070319.wav,j,t,,,,,0,145,145,53,,,,,,,,,,,,,,,j,1,1.3193905719999748,,,101,001,2019_Mar_13_1033,test_run,3.0.6,60.003330784900996,
172,ENW,ENW_82_värskappa_150219.wav,n,t,,,,,0,146,146,171,,,,,,,,,,,,,,,n,1,1.7192866540000296,,,101,001,2019_Mar_13_1033,test_run,3.0.6,60.003330784900996,
166,ENW,ENW_76_omfläskor_150219.wav,n,t,,,,,0,147,147,165,,,,,,,,,,,,,,,n,1,1.6365203330000213,,,101,001,2019_Mar_13_1033,test_run,3.0.6,60.003330784900996,
74,EFW,EFW_44_ljusa_070319.wav,j,t,,,,,0,148,148,73,,,,,,,,,,,,,,,j,1,1.3355504669999618,,,101,001,2019_Mar_13_1033,test_run,3.0.6,60.003330784900996,
79,EFW,EFW_49_vaasen_070319.wav,j,t,,,,,0,149,149,78,,,,,,,,,,,,,,,j,1,1.3859880989999738,,,101,001,2019_Mar_13_1033,test_run,3.0.6,60.003330784900996,
152,ENW,ENW_62_ljullepilja_150219.wav,n,t,,,,,0,150,150,151,,,,,,,,,,,,,,,n,1,1.335696803000019,,,101,001,2019_Mar_13_1033,test_run,3.0.6,60.003330784900996,
29,ETW,ETW_29_oeverhuvud_070319.wav,j,t,,,,,0,151,151,28,,,,,,,,,,,,,,,j,1,1.4692410739999104,,,101,001,2019_Mar_13_1033,test_run,3.0.6,60.003330784900996,
50,EFW,EFW_20_fenomen_070319.wav,j,t,,,,,0,152,152,49,,,,,,,,,,,,,,,j,1,1.1856097570000657,,,101,001,2019_Mar_13_1033,test_run,3.0.6,60.003330784900996,
109,ENW,ENW_19_morloren_150219.wav,n,t,,,,,0,153,153,108,,,,,,,,,,,,,,,n,1,1.6031876510000984,,,101,001,2019_Mar_13_1033,test_run,3.0.6,60.003330784900996,
92,ENW,ENW_2_overralka_150219.wav,n,t,,,,,0,154,154,91,,,,,,,,,,,,,,,n,1,1.8357353940000394,,,101,001,2019_Mar_13_1033,test_run,3.0.6,60.003330784900996,
164,ENW,ENW_74_malsera_150219.wav,n,t,,,,,0,155,155,163,,,,,,,,,,,,,,,n,1,5.9195850910000445,,,101,001,2019_Mar_13_1033,test_run,3.0.6,60.003330784900996,
55,EFW,EFW_25_informera_070319.wav,j,t,,,,,0,156,156,54,,,,,,,,,,,,,,,j,1,1.1525262039999689,,,101,001,2019_Mar_13_1033,test_run,3.0.6,60.003330784900996,
26,ETW,ETW_26_olympiad_070319.wav,j,t,,,,,0,157,157,25,,,,,,,,,,,,,,,j,1,1.1023928099999694,,,101,001,2019_Mar_13_1033,test_run,3.0.6,60.003330784900996,
65,EFW,EFW_35_affaarer_070319.wav,j,t,,,,,0,158,158,64,,,,,,,,,,,,,,,j,1,1.1193254190000061,,,101,001,2019_Mar_13_1033,test_run,3.0.6,60.003330784900996,
68,EFW,EFW_38_foerefoell_070319.wav,j,t,,,,,0,159,159,67,,,,,,,,,,,,,,,j,1,1.6195261799999798,,,101,001,2019_Mar_13_1033,test_run,3.0.6,60.003330784900996,
147,ENW,ENW_57_flovanning_150219.wav,n,t,,,,,0,160,160,146,,,,,,,,,,,,,,,n,1,1.4694098639999993,,,101,001,2019_Mar_13_1033,test_run,3.0.6,60.003330784900996,
131,ENW,ENW_41_vessmaren_150219.wav,n,t,,,,,0,161,161,130,,,,,,,,,,,,,,,n,1,1.4357687450000185,,,101,001,2019_Mar_13_1033,test_run,3.0.6,60.003330784900996,
118,ENW,ENW_28_läkermask_150219.wav,n,t,,,,,0,162,162,117,,,,,,,,,,,,,,,j,0,7.350429706,,,101,001,2019_Mar_13_1033,test_run,3.0.6,60.003330784900996,
51,EFW,EFW_21_varierar_070319.wav,j,t,,,,,0,163,163,50,,,,,,,,,,,,,,,j,1,1.4523244030000342,,,101,001,2019_Mar_13_1033,test_run,3.0.6,60.003330784900996,
105,ENW,ENW_15_forfeckla_150219.wav,n,t,,,,,0,164,164,104,,,,,,,,,,,,,,,n,1,1.9856302370000094,,,101,001,2019_Mar_13_1033,test_run,3.0.6,60.003330784900996,
140,ENW,ENW_50_omsänare_150219.wav,n,t,,,,,0,165,165,139,,,,,,,,,,,,,,,n,1,1.4028252079999675,,,101,001,2019_Mar_13_1033,test_run,3.0.6,60.003330784900996,
138,ENW,ENW_48_skyjamsen_150219.wav,n,t,,,,,0,166,166,137,,,,,,,,,,,,,,,n,1,1.5691787470000236,,,101,001,2019_Mar_13_1033,test_run,3.0.6,60.003330784900996,
180,ENW,ENW_90_skrivinar_150219.wav,n,t,,,,,0,167,167,179,,,,,,,,,,,,,,,n,1,1.8356915389999813,,,101,001,2019_Mar_13_1033,test_run,3.0.6,60.003330784900996,
110,ENW,ENW_20_invonen_150219.wav,n,t,,,,,0,168,168,109,,,,,,,,,,,,,,,n,1,1.7529331750000665,,,101,001,2019_Mar_13_1033,test_run,3.0.6,60.003330784900996,
157,ENW,ENW_67_oafreskar_150219.wav,n,t,,,,,0,169,169,156,,,,,,,,,,,,,,,n,1,1.4854435550000744,,,101,001,2019_Mar_13_1033,test_run,3.0.6,60.003330784900996,
128,ENW,ENW_38_roakanier_150219.wav,n,t,,,,,0,170,170,127,,,,,,,,,,,,,,,n,1,1.6359638600000608,,,101,001,2019_Mar_13_1033,test_run,3.0.6,60.003330784900996,
37,EFW,EFW_7_sociala_070319.wav,j,t,,,,,0,171,171,36,,,,,,,,,,,,,,,j,1,1.169102662000114,,,101,001,2019_Mar_13_1033,test_run,3.0.6,60.003330784900996,
28,ETW,ETW_28_kommunalroad_070319.wav,j,t,,,,,0,172,172,27,,,,,,,,,,,,,,,j,1,1.9699628729999858,,,101,001,2019_Mar_13_1033,test_run,3.0.6,60.003330784900996,
90,EFW,EFW_60_insulin_070319.wav,j,t,,,,,0,173,173,89,,,,,,,,,,,,,,,j,1,1.2857519330000287,,,101,001,2019_Mar_13_1033,test_run,3.0.6,60.003330784900996,
33,EFW,EFW_3_familjen_070319.wav,j,t,,,,,0,174,174,32,,,,,,,,,,,,,,,j,1,1.135944150000114,,,101,001,2019_Mar_13_1033,test_run,3.0.6,60.003330784900996,
168,ENW,ENW_78_morvinder_150219.wav,n,t,,,,,0,175,175,167,,,,,,,,,,,,,,,n,1,1.6189627650001057,,,101,001,2019_Mar_13_1033,test_run,3.0.6,60.003330784900996,
101,ENW,ENW_11_fränna_150219.wav,n,t,,,,,0,176,176,100,,,,,,,,,,,,,,,n,1,1.319665827000108,,,101,001,2019_Mar_13_1033,test_run,3.0.6,60.003330784900996,
61,EFW,EFW_31_jaamfoera_070319.wav,j,t,,,,,0,177,177,60,,,,,,,,,,,,,,,j,1,1.3532301190000453,,,101,001,2019_Mar_13_1033,test_run,3.0.6,60.003330784900996,
11,ETW,ETW_11_period_070319.wav,j,t,,,,,0,178,178,10,,,,,,,,,,,,,,,j,1,1.6192244669998672,,,101,001,2019_Mar_13_1033,test_run,3.0.6,60.003330784900996,
99,ENW,ENW_9_samlemor_150219.wav,n,t,,,,,0,179,179,98,,,,,,,,,,,,,,,n,1,1.4527264600001217,,,101,001,2019_Mar_13_1033,test_run,3.0.6,60.003330784900996,
21,TTF,TTF_21_gjoet_070319.wav,,,1,rating_d_final.csv,d,final,,,,,0,0,0,0,0,0,0,0,0,0,0,20,,,,,,2,14.404,101,001,2019_Mar_13_1033,test_run,3.0.6,60.003330784900996,
18,TTF,TTF_18_skjut_070319.wav,,,1,rating_d_final.csv,d,final,,,,,0,0,0,0,0,0,0,0,0,1,1,17,,,,,,2,2.371,101,001,2019_Mar_13_1033,test_run,3.0.6,60.003330784900996,
16,TDF,TDF_16_fond_070319.wav,,,1,rating_d_final.csv,d,final,,,,,0,0,0,0,0,0,0,0,0,2,2,15,,,,,,7,2.686,101,001,2019_Mar_13_1033,test_run,3.0.6,60.003330784900996,
5,TDF,TDF_5_voad_070319.wav,,,1,rating_d_final.csv,d,final,,,,,0,0,0,0,0,0,0,0,0,3,3,4,,,,,,6,1.22,101,001,2019_Mar_13_1033,test_run,3.0.6,60.003330784900996,
27,TTF,TTF_27_sant_070319.wav,,,1,rating_d_final.csv,d,final,,,,,0,0,0,0,0,0,0,0,0,4,4,26,,,,,,1,6.336,101,001,2019_Mar_13_1033,test_run,3.0.6,60.003330784900996,
13,TDF,TDF_13_ljud_070319.wav,,,1,rating_d_final.csv,d,final,,,,,0,0,0,0,0,0,0,0,0,5,5,12,,,,,,7,0.771,101,001,2019_Mar_13_1033,test_run,3.0.6,60.003330784900996,
30,TTF,TTF_30_slatt_070319.wav,,,1,rating_d_final.csv,d,final,,,,,0,0,0,0,0,0,0,0,0,6,6,29,,,,,,1,0.504,101,001,2019_Mar_13_1033,test_run,3.0.6,60.003330784900996,
3,TDF,TDF_3_raad_070319.wav,,,1,rating_d_final.csv,d,final,,,,,0,0,0,0,0,0,0,0,0,7,7,2,,,,,,4,0.622,101,001,2019_Mar_13_1033,test_run,3.0.6,60.003330784900996,
20,TTF,TTF_20_got_070319.wav,,,1,rating_d_final.csv,d,final,,,,,0,0,0,0,0,0,0,0,0,8,8,19,,,,,,5,0.654,101,001,2019_Mar_13_1033,test_run,3.0.6,60.003330784900996,
7,TDF,TDF_7_vid_070319.wav,,,1,rating_d_final.csv,d,final,,,,,0,0,0,0,0,0,0,0,0,9,9,6,,,,,,5,0.47,101,001,2019_Mar_13_1033,test_run,3.0.6,60.003330784900996,
25,TTF,TTF_25_synt_070319.wav,,,1,rating_d_final.csv,d,final,,,,,0,0,0,0,0,0,0,0,0,10,10,24,,,,,,4,0.403,101,001,2019_Mar_13_1033,test_run,3.0.6,60.003330784900996,
9,TDF,TDF_9_bod_070319.wav,,,1,rating_d_final.csv,d,final,,,,,0,0,0,0,0,0,0,0,0,11,11,8,,,,,,5,3.353,101,001,2019_Mar_13_1033,test_run,3.0.6,60.003330784900996,
6,TDF,TDF_6_voard_070319.wav,,,1,rating_d_final.csv,d,final,,,,,0,0,0,0,0,0,0,0,0,12,12,5,,,,,,6,0.471,101,001,2019_Mar_13_1033,test_run,3.0.6,60.003330784900996,
2,TDF,TDF_2_ved_070319.wav,,,1,rating_d_final.csv,d,final,,,,,0,0,0,0,0,0,0,0,0,13,13,1,,,,,,6,0.454,101,001,2019_Mar_13_1033,test_run,3.0.6,60.003330784900996,
11,TDF,TDF_11_svid_070319.wav,,,1,rating_d_final.csv,d,final,,,,,0,0,0,0,0,0,0,0,0,14,14,10,,,,,,1,0.453,101,001,2019_Mar_13_1033,test_run,3.0.6,60.003330784900996,
8,TDF,TDF_8_nod_070319.wav,,,1,rating_d_final.csv,d,final,,,,,0,0,0,0,0,0,0,0,0,15,15,7,,,,,,6,0.403,101,001,2019_Mar_13_1033,test_run,3.0.6,60.003330784900996,
14,TDF,TDF_14_mod_070319.wav,,,1,rating_d_final.csv,d,final,,,,,0,0,0,0,0,0,0,0,0,16,16,13,,,,,,4,1.171,101,001,2019_Mar_13_1033,test_run,3.0.6,60.003330784900996,
1,TDF,TDF_1_rid_070319.wav,,,1,rating_d_final.csv,d,final,,,,,0,0,0,0,0,0,0,0,0,17,17,0,,,,,,6,3.536,101,001,2019_Mar_13_1033,test_run,3.0.6,60.003330784900996,
19,TTF,TTF_19_skoet_070319.wav,,,1,rating_d_final.csv,d,final,,,,,0,0,0,0,0,0,0,0,0,18,18,18,,,,,,1,0.471,101,001,2019_Mar_13_1033,test_run,3.0.6,60.003330784900996,
23,TTF,TTF_23_hut_070319.wav,,,1,rating_d_final.csv,d,final,,,,,0,0,0,0,0,0,0,0,0,19,19,22,,,,,,3,0.521,101,001,2019_Mar_13_1033,test_run,3.0.6,60.003330784900996,
4,TDF,TDF_4_rod_070319.wav,,,1,rating_d_final.csv,d,final,,,,,0,0,0,0,0,0,0,0,0,20,20,3,,,,,,7,0.436,101,001,2019_Mar_13_1033,test_run,3.0.6,60.003330784900996,
32,TTF,TTF_32_hoart_070319.wav,,,1,rating_d_final.csv,d,final,,,,,0,0,0,0,0,0,0,0,0,21,21,31,,,,,,3,1.886,101,001,2019_Mar_13_1033,test_run,3.0.6,60.003330784900996,
31,TTF,TTF_31_brott_070319.wav,,,1,rating_d_final.csv,d,final,,,,,0,0,0,0,0,0,0,0,0,22,22,30,,,,,,1,2.753,101,001,2019_Mar_13_1033,test_run,3.0.6,60.003330784900996,
10,TDF,TDF_10_brod_070319.wav,,,1,rating_d_final.csv,d,final,,,,,0,0,0,0,0,0,0,0,0,23,23,9,,,,,,7,3.671,101,001,2019_Mar_13_1033,test_run,3.0.6,60.003330784900996,
26,TTF,TTF_26_rymt_070319.wav,,,1,rating_d_final.csv,d,final,,,,,0,0,0,0,0,0,0,0,0,24,24,25,,,,,,4,0.703,101,001,2019_Mar_13_1033,test_run,3.0.6,60.003330784900996,
17,TTF,TTF_17_sket_070319.wav,,,1,rating_d_final.csv,d,final,,,,,0,0,0,0,0,0,0,0,0,25,25,16,,,,,,2,0.403,101,001,2019_Mar_13_1033,test_run,3.0.6,60.003330784900996,
15,TDF,TDF_15_nod_070319.wav,,,1,rating_d_final.csv,d,final,,,,,0,0,0,0,0,0,0,0,0,26,26,14,,,,,,5,4.303,101,001,2019_Mar_13_1033,test_run,3.0.6,60.003330784900996,
24,TTF,TTF_24_smit_070319.wav,,,1,rating_d_final.csv,d,final,,,,,0,0,0,0,0,0,0,0,0,27,27,23,,,,,,3,3.103,101,001,2019_Mar_13_1033,test_run,3.0.6,60.003330784900996,
28,TTF,TTF_28_brant_070319.wav,,,1,rating_d_final.csv,d,final,,,,,0,0,0,0,0,0,0,0,0,28,28,27,,,,,,1,0.437,101,001,2019_Mar_13_1033,test_run,3.0.6,60.003330784900996,
29,TTF,TTF_29_bett_070319.wav,,,1,rating_d_final.csv,d,final,,,,,0,0,0,0,0,0,0,0,0,29,29,28,,,,,,1,0.403,101,001,2019_Mar_13_1033,test_run,3.0.6,60.003330784900996,
22,TTF,TTF_22_het_070319.wav,,,1,rating_d_final.csv,d,final,,,,,0,0,0,0,0,0,0,0,0,30,30,21,,,,,,2,1.87,101,001,2019_Mar_13_1033,test_run,3.0.6,60.003330784900996,
12,TDF,TDF_12_smed_070319.wav,,,1,rating_d_final.csv,d,final,,,,,0,0,0,0,0,0,0,0,0,31,31,11,,,,,,7,0.437,101,001,2019_Mar_13_1033,test_run,3.0.6,60.003330784900996,
23,TDF,TDF_23_hud_070319.wav,,,1,rating_t_final.csv,t,final,,,,,0,0,0,0,0,1,1,1,0,0,0,22,,,,,,1,0.421,101,001,2019_Mar_13_1033,test_run,3.0.6,60.003330784900996,
13,TTF,TTF_13_gjut_070319.wav,,,1,rating_t_final.csv,t,final,,,,,0,0,0,0,0,1,1,1,0,1,1,12,,,,,,4,1.137,101,001,2019_Mar_13_1033,test_run,3.0.6,60.003330784900996,
10,TTF,TTF_10_broet_070319.wav,,,1,rating_t_final.csv,t,final,,,,,0,0,0,0,0,1,1,1,0,2,2,9,,,,,,6,2.321,101,001,2019_Mar_13_1033,test_run,3.0.6,60.003330784900996,
31,TDF,TDF_31_brodd_070319.wav,,,1,rating_t_final.csv,t,final,,,,,0,0,0,0,0,1,1,1,0,3,3,30,,,,,,3,0.47,101,001,2019_Mar_13_1033,test_run,3.0.6,60.003330784900996,
19,TDF,TDF_19_sjod_070319.wav,,,1,rating_t_final.csv,t,final,,,,,0,0,0,0,0,1,1,1,0,4,4,18,,,,,,1,2.037,101,001,2019_Mar_13_1033,test_run,3.0.6,60.003330784900996,
6,TTF,TTF_6_voart_070319.wav,,,1,rating_t_final.csv,t,final,,,,,0,0,0,0,0,1,1,1,0,5,5,5,,,,,,3,0.437,101,001,2019_Mar_13_1033,test_run,3.0.6,60.003330784900996,
32,TDF,TDF_32_hoard_070319.wav,,,1,rating_t_final.csv,t,final,,,,,0,0,0,0,0,1,1,1,0,6,6,31,,,,,,3,1.77,101,001,2019_Mar_13_1033,test_run,3.0.6,60.003330784900996,
22,TDF,TDF_22_hed_070319.wav,,,1,rating_t_final.csv,t,final,,,,,0,0,0,0,0,1,1,1,0,7,7,21,,,,,,7,0.404,101,001,2019_Mar_13_1033,test_run,3.0.6,60.003330784900996,
2,TTF,TTF_2_vet_070319.wav,,,1,rating_t_final.csv,t,final,,,,,0,0,0,0,0,1,1,1,0,8,8,1,,,,,,2,0.704,101,001,2019_Mar_13_1033,test_run,3.0.6,60.003330784900996,
7,TTF,TTF_7_vit_070319.wav,,,1,rating_t_final.csv,t,final,,,,,0,0,0,0,0,1,1,1,0,9,9,6,,,,,,3,0.803,101,001,2019_Mar_13_1033,test_run,3.0.6,60.003330784900996,
29,TDF,TDF_29_baadd_070319.wav,,,1,rating_t_final.csv,t,final,,,,,0,0,0,0,0,1,1,1,0,10,10,28,,,,,,3,2.337,101,001,2019_Mar_13_1033,test_run,3.0.6,60.003330784900996,
12,TTF,TTF_12_smet_070319.wav,,,1,rating_t_final.csv,t,final,,,,,0,0,0,0,0,1,1,1,0,11,11,11,,,,,,4,0.454,101,001,2019_Mar_13_1033,test_run,3.0.6,60.003330784900996,
9,TTF,TTF_9_bot_070319.wav,,,1,rating_t_final.csv,t,final,,,,,0,0,0,0,0,1,1,1,0,12,12,8,,,,,,4,1.053,101,001,2019_Mar_13_1033,test_run,3.0.6,60.003330784900996,
30,TDF,TDF_30_sladd_070319.wav,,,1,rating_t_final.csv,t,final,,,,,0,0,0,0,0,1,1,1,0,13,13,29,,,,,,1,1.887,101,001,2019_Mar_13_1033,test_run,3.0.6,60.003330784900996,
8,TTF,TTF_8_noet_070319.wav,,,1,rating_t_final.csv,t,final,,,,,0,0,0,0,0,1,1,1,0,14,14,7,,,,,,3,0.454,101,001,2019_Mar_13_1033,test_run,3.0.6,60.003330784900996,
1,TTF,TTF_1_rit_070319.wav,,,1,rating_t_final.csv,t,final,,,,,0,0,0,0,0,1,1,1,0,15,15,0,,,,,,7,0.42,101,001,2019_Mar_13_1033,test_run,3.0.6,60.003330784900996,
21,TDF,TDF_21_ljod _070319.wav,,,1,rating_t_final.csv,t,final,,,,,0,0,0,0,0,1,1,1,0,16,16,20,,,,,,2,0.403,101,001,2019_Mar_13_1033,test_run,3.0.6,60.003330784900996,
3,TTF,TTF_3_raat_070319.wav,,,1,rating_t_final.csv,t,final,,,,,0,0,0,0,0,1,1,1,0,17,17,2,,,,,,4,0.52,101,001,2019_Mar_13_1033,test_run,3.0.6,60.003330784900996,
18,TDF,TDF_18_sjud_070319.wav,,,1,rating_t_final.csv,t,final,,,,,0,0,0,0,0,1,1,1,0,18,18,17,,,,,,1,1.87,101,001,2019_Mar_13_1033,test_run,3.0.6,60.003330784900996,
17,TDF,TDF_17_sked_070319.wav,,,1,rating_t_final.csv,t,final,,,,,0,0,0,0,0,1,1,1,0,19,19,16,,,,,,1,0.419,101,001,2019_Mar_13_1033,test_run,3.0.6,60.003330784900996,
24,TDF,TDF_24_smid_070319.wav,,,1,rating_t_final.csv,t,final,,,,,0,0,0,0,0,1,1,1,0,20,20,23,,,,,,1,1.47,101,001,2019_Mar_13_1033,test_run,3.0.6,60.003330784900996,
5,TTF,TTF_5_voat_070319.wav,,,1,rating_t_final.csv,t,final,,,,,0,0,0,0,0,1,1,1,0,21,21,4,,,,,,7,1.736,101,001,2019_Mar_13_1033,test_run,3.0.6,60.003330784900996,
11,TTF,TTF_11_svit_070319.wav,,,1,rating_t_final.csv,t,final,,,,,0,0,0,0,0,1,1,1,0,22,22,10,,,,,,7,1.187,101,001,2019_Mar_13_1033,test_run,3.0.6,60.003330784900996,
14,TTF,TTF_14_mot_070319.wav,,,1,rating_t_final.csv,t,final,,,,,0,0,0,0,0,1,1,1,0,23,23,13,,,,,,5,1.121,101,001,2019_Mar_13_1033,test_run,3.0.6,60.003330784900996,
16,TTF,TTF_16_font_070319.wav,,,1,rating_t_final.csv,t,final,,,,,0,0,0,0,0,1,1,1,0,24,24,15,,,,,,5,1.637,101,001,2019_Mar_13_1033,test_run,3.0.6,60.003330784900996,
28,TDF,TDF_28_brand_070319.wav,,,1,rating_t_final.csv,t,final,,,,,0,0,0,0,0,1,1,1,0,25,25,27,,,,,,2,1.404,101,001,2019_Mar_13_1033,test_run,3.0.6,60.003330784900996,
25,TDF,TDF_25_synd_070319.wav,,,1,rating_t_final.csv,t,final,,,,,0,0,0,0,0,1,1,1,0,26,26,24,,,,,,2,1.236,101,001,2019_Mar_13_1033,test_run,3.0.6,60.003330784900996,
20,TDF,TDF_20_god_070319.wav,,,1,rating_t_final.csv,t,final,,,,,0,0,0,0,0,1,1,1,0,27,27,19,,,,,,3,0.871,101,001,2019_Mar_13_1033,test_run,3.0.6,60.003330784900996,
26,TDF,TDF_26_rymd_070319.wav,,,1,rating_t_final.csv,t,final,,,,,0,0,0,0,0,1,1,1,0,28,28,25,,,,,,2,0.804,101,001,2019_Mar_13_1033,test_run,3.0.6,60.003330784900996,
27,TDF,TDF_27_sand_070319.wav,,,1,rating_t_final.csv,t,final,,,,,0,0,0,0,0,1,1,1,0,29,29,26,,,,,,3,0.437,101,001,2019_Mar_13_1033,test_run,3.0.6,60.003330784900996,
15,TTF,TTF_15_not_070319.wav,,,1,rating_t_final.csv,t,final,,,,,0,0,0,0,0,1,1,1,0,30,30,14,,,,,,6,2.786,101,001,2019_Mar_13_1033,test_run,3.0.6,60.003330784900996,
4,TTF,TTF_4_roet_070319.wav,,,1,rating_t_final.csv,t,final,,,,,0,0,0,0,0,1,1,1,0,31,31,3,,,,,,5,0.537,101,001,2019_Mar_13_1033,test_run,3.0.6,60.003330784900996,
3,TDI,TDI_3_dal_150219.wav,,,2,rating_d_initial.csv,d,initial,,,,,0,1,1,1,0,0,0,0,0,0,0,2,,,,,,7,1.253,101,001,2019_Mar_13_1033,test_run,3.0.6,60.003330784900996,
19,TTI,TTI_19_tun_150219.wav,,,2,rating_d_initial.csv,d,initial,,,,,0,1,1,1,0,0,0,0,0,1,1,18,,,,,,6,0.453,101,001,2019_Mar_13_1033,test_run,3.0.6,60.003330784900996,
14,TDI,TDI_14_dok_150219.wav,,,2,rating_d_initial.csv,d,initial,,,,,0,1,1,1,0,0,0,0,0,2,2,13,,,,,,6,1.186,101,001,2019_Mar_13_1033,test_run,3.0.6,60.003330784900996,
18,TTI,TTI_18_tum_150219.wav,,,2,rating_d_initial.csv,d,initial,,,,,0,1,1,1,0,0,0,0,0,3,3,17,,,,,,1,0.42,101,001,2019_Mar_13_1033,test_run,3.0.6,60.003330784900996,
11,TDI,TDI_11_dipp_150219.wav,,,2,rating_d_initial.csv,d,initial,,,,,0,1,1,1,0,0,0,0,0,4,4,10,,,,,,7,2.354,101,001,2019_Mar_13_1033,test_run,3.0.6,60.003330784900996,
17,TTI,TTI_17_topp_150219.wav,,,2,rating_d_initial.csv,d,initial,,,,,0,1,1,1,0,0,0,0,0,5,5,16,,,,,,4,0.487,101,001,2019_Mar_13_1033,test_run,3.0.6,60.003330784900996,
13,TDI,TDI_13_dog_150219.wav,,,2,rating_d_initial.csv,d,initial,,,,,0,1,1,1,0,0,0,0,0,6,6,12,,,,,,5,0.737,101,001,2019_Mar_13_1033,test_run,3.0.6,60.003330784900996,
20,TTI,TTI_20_tur_150219.wav,,,2,rating_d_initial.csv,d,initial,,,,,0,1,1,1,0,0,0,0,0,7,7,19,,,,,,2,0.537,101,001,2019_Mar_13_1033,test_run,3.0.6,60.003330784900996,
2,TDI,TDI_2_dagg_150219.wav,,,2,rating_d_initial.csv,d,initial,,,,,0,1,1,1,0,0,0,0,0,8,8,1,,,,,,4,0.854,101,001,2019_Mar_13_1033,test_run,3.0.6,60.003330784900996,
9,TDI,TDI_9_dill_150219.wav,,,2,rating_d_initial.csv,d,initial,,,,,0,1,1,1,0,0,0,0,0,9,9,8,,,,,,7,2.203,101,001,2019_Mar_13_1033,test_run,3.0.6,60.003330784900996,
15,TTI,TTI_15_tom_150219.wav,,,2,rating_d_initial.csv,d,initial,,,,,0,1,1,1,0,0,0,0,0,10,10,14,,,,,,2,0.487,101,001,2019_Mar_13_1033,test_run,3.0.6,60.003330784900996,
10,TDI,TDI_10_ditt_150219.wav,,,2,rating_d_initial.csv,d,initial,,,,,0,1,1,1,0,0,0,0,0,11,11,9,,,,,,7,0.504,101,001,2019_Mar_13_1033,test_run,3.0.6,60.003330784900996,
1,TDI,TDI_1_dag_150219.wav,,,2,rating_d_initial.csv,d,initial,,,,,0,1,1,1,0,0,0,0,0,12,12,0,,,,,,7,1.82,101,001,2019_Mar_13_1033,test_run,3.0.6,60.003330784900996,
6,TDI,TDI_6_deg_150219.wav,,,2,rating_d_initial.csv,d,initial,,,,,0,1,1,1,0,0,0,0,0,13,13,5,,,,,,5,0.454,101,001,2019_Mar_13_1033,test_run,3.0.6,60.003330784900996,
25,TTI,TTI_25_taar_150219.wav,,,2,rating_d_initial.csv,d,initial,,,,,0,1,1,1,0,0,0,0,0,14,14,24,,,,,,7,0.453,101,001,2019_Mar_13_1033,test_run,3.0.6,60.003330784900996,
8,TDI,TDI_8_dia_150219.wav,,,2,rating_d_initial.csv,d,initial,,,,,0,1,1,1,0,0,0,0,0,15,15,7,,,,,,7,2.354,101,001,2019_Mar_13_1033,test_run,3.0.6,60.003330784900996,
23,TTI,TTI_23_toa_150219.wav,,,2,rating_d_initial.csv,d,initial,,,,,0,1,1,1,0,0,0,0,0,16,16,22,,,,,,6,0.603,101,001,2019_Mar_13_1033,test_run,3.0.6,60.003330784900996,
24,TTI,TTI_24_taack_150219.wav,,,2,rating_d_initial.csv,d,initial,,,,,0,1,1,1,0,0,0,0,0,17,17,23,,,,,,3,0.452,101,001,2019_Mar_13_1033,test_run,3.0.6,60.003330784900996,
7,TDI,TDI_7_den_150219.wav,,,2,rating_d_initial.csv,d,initial,,,,,0,1,1,1,0,0,0,0,0,18,18,6,,,,,,7,0.421,101,001,2019_Mar_13_1033,test_run,3.0.6,60.003330784900996,
5,TDI,TDI_5_dass_150219.wav,,,2,rating_d_initial.csv,d,initial,,,,,0,1,1,1,0,0,0,0,0,19,19,4,,,,,,7,2.421,101,001,2019_Mar_13_1033,test_run,3.0.6,60.003330784900996,
26,TTI,TTI_26_toe_150219.wav,,,2,rating_d_initial.csv,d,initial,,,,,0,1,1,1,0,0,0,0,0,20,20,25,,,,,,6,0.971,101,001,2019_Mar_13_1033,test_run,3.0.6,60.003330784900996,
27,TTI,TTI_27_toem_150219.wav,,,2,rating_d_initial.csv,d,initial,,,,,0,1,1,1,0,0,0,0,0,21,21,26,,,,,,2,0.654,101,001,2019_Mar_13_1033,test_run,3.0.6,60.003330784900996,
4,TDI,TDI_4_dam_150219.wav,,,2,rating_d_initial.csv,d,initial,,,,,0,1,1,1,0,0,0,0,0,22,22,3,,,,,,7,0.454,101,001,2019_Mar_13_1033,test_run,3.0.6,60.003330784900996,
22,TTI,TTI_22_ty_150219.wav,,,2,rating_d_initial.csv,d,initial,,,,,0,1,1,1,0,0,0,0,0,23,23,21,,,,,,4,0.536,101,001,2019_Mar_13_1033,test_run,3.0.6,60.003330784900996,
12,TDI,TDI_12_doa_150219.wav,,,2,rating_d_initial.csv,d,initial,,,,,0,1,1,1,0,0,0,0,0,24,24,11,,,,,,6,1.02,101,001,2019_Mar_13_1033,test_run,3.0.6,60.003330784900996,
16,TTI,TTI_16_ton_150219.wav,,,2,rating_d_initial.csv,d,initial,,,,,0,1,1,1,0,0,0,0,0,25,25,15,,,,,,1,0.803,101,001,2019_Mar_13_1033,test_run,3.0.6,60.003330784900996,
21,TTI,TTI_21_tugg_150219.wav,,,2,rating_d_initial.csv,d,initial,,,,,0,1,1,1,0,0,0,0,0,26,26,20,,,,,,2,2.137,101,001,2019_Mar_13_1033,test_run,3.0.6,60.003330784900996,
4,TTI,TTI_4_tam_150219.wav,,,2,rating_t_initial.csv,t,initial,,,,,0,1,1,1,0,1,1,1,0,0,0,3,,,,,,1,0.687,101,001,2019_Mar_13_1033,test_run,3.0.6,60.003330784900996,
13,TTI,TTI_13_tog_150219.wav,,,2,rating_t_initial.csv,t,initial,,,,,0,1,1,1,0,1,1,1,0,1,1,12,,,,,,1,0.421,101,001,2019_Mar_13_1033,test_run,3.0.6,60.003330784900996,
11,TTI,TTI_11_tipp_150219.wav,,,2,rating_t_initial.csv,t,initial,,,,,0,1,1,1,0,1,1,1,0,2,2,10,,,,,,6,2.153,101,001,2019_Mar_13_1033,test_run,3.0.6,60.003330784900996,
16,TDI,TDI_16_don_150219.wav,,,2,rating_t_initial.csv,t,initial,,,,,0,1,1,1,0,1,1,1,0,3,3,15,,,,,,2,0.687,101,001,2019_Mar_13_1033,test_run,3.0.6,60.003330784900996,
17,TDI,TDI_17_dopp_150219.wav,,,2,rating_t_initial.csv,t,initial,,,,,0,1,1,1,0,1,1,1,0,4,4,16,,,,,,1,7.821,101,001,2019_Mar_13_1033,test_run,3.0.6,60.003330784900996,
3,TTI,TTI_3_tal_150219.wav,,,2,rating_t_initial.csv,t,initial,,,,,0,1,1,1,0,1,1,1,0,5,5,2,,,,,,6,0.787,101,001,2019_Mar_13_1033,test_run,3.0.6,60.003330784900996,
19,TDI,TDI_19_dun_150219.wav,,,2,rating_t_initial.csv,t,initial,,,,,0,1,1,1,0,1,1,1,0,6,6,18,,,,,,1,0.42,101,001,2019_Mar_13_1033,test_run,3.0.6,60.003330784900996,
5,TTI,TTI_5_tass_150219.wav,,,2,rating_t_initial.csv,t,initial,,,,,0,1,1,1,0,1,1,1,0,7,7,4,,,,,,2,0.437,101,001,2019_Mar_13_1033,test_run,3.0.6,60.003330784900996,
26,TDI,TDI_26_doe_150219.wav,,,2,rating_t_initial.csv,t,initial,,,,,0,1,1,1,0,1,1,1,0,8,8,25,,,,,,1,0.521,101,001,2019_Mar_13_1033,test_run,3.0.6,60.003330784900996,
23,TDI,TDI_23_doa_150219.wav,,,2,rating_t_initial.csv,t,initial,,,,,0,1,1,1,0,1,1,1,0,9,9,22,,,,,,1,1.203,101,001,2019_Mar_13_1033,test_run,3.0.6,60.003330784900996,
9,TTI,TTI_9_till_150219.wav,,,2,rating_t_initial.csv,t,initial,,,,,0,1,1,1,0,1,1,1,0,10,10,8,,,,,,3,1.921,101,001,2019_Mar_13_1033,test_run,3.0.6,60.003330784900996,
12,TTI,TTI_12_toa_150219.wav,,,2,rating_t_initial.csv,t,initial,,,,,0,1,1,1,0,1,1,1,0,11,11,11,,,,,,6,0.954,101,001,2019_Mar_13_1033,test_run,3.0.6,60.003330784900996,
10,TTI,TTI_10_titt_150219.wav,,,2,rating_t_initial.csv,t,initial,,,,,0,1,1,1,0,1,1,1,0,12,12,9,,,,,,2,0.471,101,001,2019_Mar_13_1033,test_run,3.0.6,60.003330784900996,
21,TDI,TDI_21_dugg_150219.wav,,,2,rating_t_initial.csv,t,initial,,,,,0,1,1,1,0,1,1,1,0,13,13,20,,,,,,2,1.803,101,001,2019_Mar_13_1033,test_run,3.0.6,60.003330784900996,
2,TTI,TTI_2_tagg_150219.wav,,,2,rating_t_initial.csv,t,initial,,,,,0,1,1,1,0,1,1,1,0,14,14,1,,,,,,3,0.554,101,001,2019_Mar_13_1033,test_run,3.0.6,60.003330784900996,
14,TTI,TTI_14_tok_150219.wav,,,2,rating_t_initial.csv,t,initial,,,,,0,1,1,1,0,1,1,1,0,15,15,13,,,,,,6,0.538,101,001,2019_Mar_13_1033,test_run,3.0.6,60.003330784900996,
7,TTI,TTI_7_tenn_150219.wav,,,2,rating_t_initial.csv,t,initial,,,,,0,1,1,1,0,1,1,1,0,16,16,6,,,,,,2,1.319,101,001,2019_Mar_13_1033,test_run,3.0.6,60.003330784900996,
15,TDI,TDI_15_dom_150219.wav,,,2,rating_t_initial.csv,t,initial,,,,,0,1,1,1,0,1,1,1,0,17,17,14,,,,,,1,0.72,101,001,2019_Mar_13_1033,test_run,3.0.6,60.003330784900996,
18,TDI,TDI_18_dum_150219.wav,,,2,rating_t_initial.csv,t,initial,,,,,0,1,1,1,0,1,1,1,0,18,18,17,,,,,,1,0.453,101,001,2019_Mar_13_1033,test_run,3.0.6,60.003330784900996,
24,TDI,TDI_24_daack_150219.wav,,,2,rating_t_initial.csv,t,initial,,,,,0,1,1,1,0,1,1,1,0,19,19,23,,,,,,1,0.437,101,001,2019_Mar_13_1033,test_run,3.0.6,60.003330784900996,
8,TTI,TTI_8_tia_150219.wav,,,2,rating_t_initial.csv,t,initial,,,,,0,1,1,1,0,1,1,1,0,20,20,7,,,,,,7,0.52,101,001,2019_Mar_13_1033,test_run,3.0.6,60.003330784900996,
25,TDI,TDI_25_daar_150219.wav,,,2,rating_t_initial.csv,t,initial,,,,,0,1,1,1,0,1,1,1,0,21,21,24,,,,,,1,0.487,101,001,2019_Mar_13_1033,test_run,3.0.6,60.003330784900996,
6,TTI,TTI_6_teg_150219.wav,,,2,rating_t_initial.csv,t,initial,,,,,0,1,1,1,0,1,1,1,0,22,22,5,,,,,,4,1.837,101,001,2019_Mar_13_1033,test_run,3.0.6,60.003330784900996,
22,TDI,TDI_22_dy_150219.wav,,,2,rating_t_initial.csv,t,initial,,,,,0,1,1,1,0,1,1,1,0,23,23,21,,,,,,1,0.454,101,001,2019_Mar_13_1033,test_run,3.0.6,60.003330784900996,
1,TTI,TTI_1_tag_150219.wav,,,2,rating_t_initial.csv,t,initial,,,,,0,1,1,1,0,1,1,1,0,24,24,0,,,,,,4,0.553,101,001,2019_Mar_13_1033,test_run,3.0.6,60.003330784900996,
27,TDI,TDI_27_doem_edit_150219.wav,,,2,rating_t_initial.csv,t,initial,,,,,0,1,1,1,0,1,1,1,0,25,25,26,,,,,,1,0.653,101,001,2019_Mar_13_1033,test_run,3.0.6,60.003330784900996,
20,TDI,TDI_20_dur_150219.wav,,,2,rating_t_initial.csv,t,initial,,,,,0,1,1,1,0,1,1,1,0,26,26,19,,,,,,1,0.437,101,001,2019_Mar_13_1033,test_run,3.0.6,60.003330784900996,
