item,item_cond,sound,corr_ans,group,block_id,listname,rating_for,position,trials.thisRepN,trials.thisTrialN,trials.thisN,trials.thisIndex,run_block_type.thisRepN,run_block_type.thisTrialN,run_block_type.thisN,run_block_type.thisIndex,routine.thisRepN,routine.thisTrialN,routine.thisN,routine.thisIndex,rating_trials.thisRepN,rating_trials.thisTrialN,rating_trials.thisN,rating_trials.thisIndex,key_resp_1.keys,key_resp_1.rt,key_resp_2.keys,key_resp_2.corr,key_resp_2.rt,rating_1.response,rating_1.rt,participant,session,date,expName,psychopyVersion,frameRate,
,,,,,,,,,,,,,,,,,,,,,,,,,space,57.76640210900041,,,,,,102,001,2019_Mar_13_1331,test_run,3.0.6,59.96829883862001,
34,EFW,EFW_4_foerminska_070319.wav,j,c ,,,,,0,0,0,33,,,,,,,,,,,,,,,j,1,1.5522886669987201,,,102,001,2019_Mar_13_1331,test_run,3.0.6,59.96829883862001,
45,EFW,EFW_15_oeverens_070319.wav,j,c ,,,,,0,1,1,44,,,,,,,,,,,,,,,j,1,1.1670831089995772,,,102,001,2019_Mar_13_1331,test_run,3.0.6,59.96829883862001,
99,ENW,ENW_9_samlemor_150219.wav,n,c ,,,,,0,2,2,98,,,,,,,,,,,,,,,n,1,1.2362278809996496,,,102,001,2019_Mar_13_1331,test_run,3.0.6,59.96829883862001,
171,ENW,ENW_81_persifera_150219.wav,n,c ,,,,,0,3,3,170,,,,,,,,,,,,,,,n,1,0.7025418899993383,,,102,001,2019_Mar_13_1331,test_run,3.0.6,59.96829883862001,
138,ENW,ENW_48_skyjamsen_150219.wav,n,c ,,,,,0,4,4,137,,,,,,,,,,,,,,,n,1,1.201954823000051,,,102,001,2019_Mar_13_1331,test_run,3.0.6,59.96829883862001,
9,ECW,ECW_9_spinna_070319.wav,j,c ,,,,,0,5,5,8,,,,,,,,,,,,,,,j,1,0.4861909489991376,,,102,001,2019_Mar_13_1331,test_run,3.0.6,59.96829883862001,
102,ENW,ENW_12_snälmola_150219.wav,n,c ,,,,,0,6,6,101,,,,,,,,,,,,,,,n,1,1.4195404820002295,,,102,001,2019_Mar_13_1331,test_run,3.0.6,59.96829883862001,
91,ENW,ENW_1_norsimerar_150219.wav,n,c ,,,,,0,7,7,90,,,,,,,,,,,,,,,n,1,1.118709268999737,,,102,001,2019_Mar_13_1331,test_run,3.0.6,59.96829883862001,
44,EFW,EFW_14_foersoeken_070319.wav,j,c ,,,,,0,8,8,43,,,,,,,,,,,,,,,j,1,2.136743949000447,,,102,001,2019_Mar_13_1331,test_run,3.0.6,59.96829883862001,
158,ENW,ENW_68_presionar_150219.wav,n,c ,,,,,0,9,9,157,,,,,,,,,,,,,,,n,1,0.769621161998657,,,102,001,2019_Mar_13_1331,test_run,3.0.6,59.96829883862001,
159,ENW,ENW_69_mjohusa_150219.wav,n,c ,,,,,0,10,10,158,,,,,,,,,,,,,,,n,1,0.9528909260006913,,,102,001,2019_Mar_13_1331,test_run,3.0.6,59.96829883862001,
126,ENW,ENW_36_skymlosa_150219.wav,n,c ,,,,,0,11,11,125,,,,,,,,,,,,,,,n,1,1.5861725000013394,,,102,001,2019_Mar_13_1331,test_run,3.0.6,59.96829883862001,
88,EFW,EFW_58_examen_070319.wav,j,c ,,,,,0,12,12,87,,,,,,,,,,,,,,,j,1,0.45258384099906834,,,102,001,2019_Mar_13_1331,test_run,3.0.6,59.96829883862001,
117,ENW,ENW_27_lyssvinner_150219.wav,n,c ,,,,,0,13,13,116,,,,,,,,,,,,,,,n,1,1.3357047950012202,,,102,001,2019_Mar_13_1331,test_run,3.0.6,59.96829883862001,
123,ENW,ENW_33_froamation_150219.wav,n,c ,,,,,0,14,14,122,,,,,,,,,,,,,,,n,1,1.0360758429997077,,,102,001,2019_Mar_13_1331,test_run,3.0.6,59.96829883862001,
161,ENW,ENW_71_forskäckla_150219.wav,n,c ,,,,,0,15,15,160,,,,,,,,,,,,,,,n,1,1.4356333460000315,,,102,001,2019_Mar_13_1331,test_run,3.0.6,59.96829883862001,
133,ENW,ENW_43_axalän_150219.wav,n,c ,,,,,0,16,16,132,,,,,,,,,,,,,,,n,1,1.4527512799995748,,,102,001,2019_Mar_13_1331,test_run,3.0.6,59.96829883862001,
115,ENW,ENW_25_affierar_150219.wav,n,c ,,,,,0,17,17,114,,,,,,,,,,,,,,,n,1,1.585592089999409,,,102,001,2019_Mar_13_1331,test_run,3.0.6,59.96829883862001,
32,EFW,EFW_2_snarare_070319.wav,j,c ,,,,,0,18,18,31,,,,,,,,,,,,,,,j,1,0.6522860179993586,,,102,001,2019_Mar_13_1331,test_run,3.0.6,59.96829883862001,
144,ENW,ENW_54_lomering_150219.wav,n,c ,,,,,0,19,19,143,,,,,,,,,,,,,,,n,1,1.035408114999882,,,102,001,2019_Mar_13_1331,test_run,3.0.6,59.96829883862001,
54,EFW,EFW_24_foersvinner_070319.wav,j,c ,,,,,0,20,20,53,,,,,,,,,,,,,,,j,1,0.28597857400018256,,,102,001,2019_Mar_13_1331,test_run,3.0.6,59.96829883862001,
155,ENW,ENW_65_hamfylla_150219.wav,n,c ,,,,,0,21,21,154,,,,,,,,,,,,,,,n,1,1.2860489979993872,,,102,001,2019_Mar_13_1331,test_run,3.0.6,59.96829883862001,
146,ENW,ENW_56_lysskarna_150219.wav,n,c ,,,,,0,22,22,145,,,,,,,,,,,,,,,n,1,1.269037672000195,,,102,001,2019_Mar_13_1331,test_run,3.0.6,59.96829883862001,
140,ENW,ENW_50_omsänare_150219.wav,n,c ,,,,,0,23,23,139,,,,,,,,,,,,,,,n,1,1.818607784998676,,,102,001,2019_Mar_13_1331,test_run,3.0.6,59.96829883862001,
114,ENW,ENW_24_samjoner_150219.wav,n,c ,,,,,0,24,24,113,,,,,,,,,,,,,,,n,1,0.5858594119999907,,,102,001,2019_Mar_13_1331,test_run,3.0.6,59.96829883862001,
60,EFW,EFW_30_officiella_070319.wav,j,c ,,,,,0,25,25,59,,,,,,,,,,,,,,,j,1,0.3362796099991101,,,102,001,2019_Mar_13_1331,test_run,3.0.6,59.96829883862001,
65,EFW,EFW_35_affaarer_070319.wav,j,c ,,,,,0,26,26,64,,,,,,,,,,,,,,,j,1,0.3192071930006932,,,102,001,2019_Mar_13_1331,test_run,3.0.6,59.96829883862001,
165,ENW,ENW_75_foarskining_150219.wav,n,c ,,,,,0,27,27,164,,,,,,,,,,,,,,,n,1,0.819083585000044,,,102,001,2019_Mar_13_1331,test_run,3.0.6,59.96829883862001,
162,ENW,ENW_72_urskecken_150219.wav,n,c ,,,,,0,28,28,161,,,,,,,,,,,,,,,n,1,0.43585764999988896,,,102,001,2019_Mar_13_1331,test_run,3.0.6,59.96829883862001,
12,ECW,ECW_12_moehippa_070319.wav,j,c ,,,,,0,29,29,11,,,,,,,,,,,,,,,j,1,0.7190646869985358,,,102,001,2019_Mar_13_1331,test_run,3.0.6,59.96829883862001,
130,ENW,ENW_40_knipackar_150219.wav,n,c ,,,,,0,30,30,129,,,,,,,,,,,,,,,n,1,1.1504511040002399,,,102,001,2019_Mar_13_1331,test_run,3.0.6,59.96829883862001,
173,ENW,ENW_83_fyrskovar_150219.wav,n,c ,,,,,0,31,31,172,,,,,,,,,,,,,,,n,1,0.5527183249996597,,,102,001,2019_Mar_13_1331,test_run,3.0.6,59.96829883862001,
170,ENW,ENW_80_tjarfera_150219.wav,n,c ,,,,,0,32,32,169,,,,,,,,,,,,,,,n,1,0.7688610429995606,,,102,001,2019_Mar_13_1331,test_run,3.0.6,59.96829883862001,
56,EFW,EFW_26_armarna_070319.wav,j,c ,,,,,0,33,33,55,,,,,,,,,,,,,,,j,1,2.4190961029999016,,,102,001,2019_Mar_13_1331,test_run,3.0.6,59.96829883862001,
110,ENW,ENW_20_invonen_150219.wav,n,c ,,,,,0,34,34,109,,,,,,,,,,,,,,,n,1,0.9359352330011461,,,102,001,2019_Mar_13_1331,test_run,3.0.6,59.96829883862001,
127,ENW,ENW_37_spallrivet_150219.wav,n,c ,,,,,0,35,35,126,,,,,,,,,,,,,,,n,1,1.069583493999744,,,102,001,2019_Mar_13_1331,test_run,3.0.6,59.96829883862001,
90,EFW,EFW_60_insulin_070319.wav,j,c ,,,,,0,36,36,89,,,,,,,,,,,,,,,j,1,0.6358233720002318,,,102,001,2019_Mar_13_1331,test_run,3.0.6,59.96829883862001,
7,ECW,ECW_7_marin_070319.wav,j,c ,,,,,0,37,37,6,,,,,,,,,,,,,,,j,1,0.41933594799957064,,,102,001,2019_Mar_13_1331,test_run,3.0.6,59.96829883862001,
11,ECW,ECW_11_foersoeka_070319.wav,j,c ,,,,,0,38,38,10,,,,,,,,,,,,,,,j,1,0.31888295899989316,,,102,001,2019_Mar_13_1331,test_run,3.0.6,59.96829883862001,
137,ENW,ENW_47_oafläppen_150219.wav,n,c ,,,,,0,39,39,136,,,,,,,,,,,,,,,n,1,0.5530406510006287,,,102,001,2019_Mar_13_1331,test_run,3.0.6,59.96829883862001,
94,ENW,ENW_4_kyllfaren_150219.wav,n,c ,,,,,0,40,40,93,,,,,,,,,,,,,,,n,1,0.5357947819993569,,,102,001,2019_Mar_13_1331,test_run,3.0.6,59.96829883862001,
20,ECW,ECW_20_sommarspel_070319.wav,j,c ,,,,,0,41,41,19,,,,,,,,,,,,,,,j,1,0.3523604569982126,,,102,001,2019_Mar_13_1331,test_run,3.0.6,59.96829883862001,
178,ENW,ENW_88_marsifen_150219.wav,n,c ,,,,,0,42,42,177,,,,,,,,,,,,,,,n,1,0.5023198580001917,,,102,001,2019_Mar_13_1331,test_run,3.0.6,59.96829883862001,
96,ENW,ENW_6_vilfroaser_150219.wav,n,c ,,,,,0,43,43,95,,,,,,,,,,,,,,,n,1,0.36911363099898153,,,102,001,2019_Mar_13_1331,test_run,3.0.6,59.96829883862001,
134,ENW,ENW_44_inlivna_150219.wav,n,c ,,,,,0,44,44,133,,,,,,,,,,,,,,,n,1,0.7523144410006353,,,102,001,2019_Mar_13_1331,test_run,3.0.6,59.96829883862001,
145,ENW,ENW_55_invaskin_150219.wav,n,c ,,,,,0,45,45,144,,,,,,,,,,,,,,,n,1,0.8189420850012539,,,102,001,2019_Mar_13_1331,test_run,3.0.6,59.96829883862001,
166,ENW,ENW_76_omfläskor_150219.wav,n,c ,,,,,0,46,46,165,,,,,,,,,,,,,,,n,1,0.9695579420003924,,,102,001,2019_Mar_13_1331,test_run,3.0.6,59.96829883862001,
33,EFW,EFW_3_familjen_070319.wav,j,c ,,,,,0,47,47,32,,,,,,,,,,,,,,,j,1,1.0690865380001924,,,102,001,2019_Mar_13_1331,test_run,3.0.6,59.96829883862001,
47,EFW,EFW_17_januari_070319.wav,j,c ,,,,,0,48,48,46,,,,,,,,,,,,,,,j,1,0.4522256489999563,,,102,001,2019_Mar_13_1331,test_run,3.0.6,59.96829883862001,
71,EFW,EFW_41_infinna_070319.wav,j,c ,,,,,0,49,49,70,,,,,,,,,,,,,,,j,1,0.5856264280009782,,,102,001,2019_Mar_13_1331,test_run,3.0.6,59.96829883862001,
16,ECW,ECW_16_skinskalle_070319.wav,j,c ,,,,,0,50,50,15,,,,,,,,,,,,,,,j,1,0.502875721998862,,,102,001,2019_Mar_13_1331,test_run,3.0.6,59.96829883862001,
100,ENW,ENW_10_skinnamer_150219.wav,n,c ,,,,,0,51,51,99,,,,,,,,,,,,,,,n,1,0.4855515330000344,,,102,001,2019_Mar_13_1331,test_run,3.0.6,59.96829883862001,
66,EFW,EFW_36_haarifroan_070319.wav,j,c ,,,,,0,52,52,65,,,,,,,,,,,,,,,j,1,0.28664230600043084,,,102,001,2019_Mar_13_1331,test_run,3.0.6,59.96829883862001,
93,ENW,ENW_3_vissorens_150219.wav,n,c ,,,,,0,53,53,92,,,,,,,,,,,,,,,n,1,0.31890593400021316,,,102,001,2019_Mar_13_1331,test_run,3.0.6,59.96829883862001,
72,EFW,EFW_42_naavaron_070319.wav,j,c ,,,,,0,54,54,71,,,,,,,,,,,,,,,j,1,0.25273861799905717,,,102,001,2019_Mar_13_1331,test_run,3.0.6,59.96829883862001,
177,ENW,ENW_87_kloavare_150219.wav,n,c ,,,,,0,55,55,176,,,,,,,,,,,,,,,n,1,0.619531571999687,,,102,001,2019_Mar_13_1331,test_run,3.0.6,59.96829883862001,
29,ECW,ECW_29_mejerier_070319.wav,j,c ,,,,,0,56,56,28,,,,,,,,,,,,,,,j,1,0.3028771619992767,,,102,001,2019_Mar_13_1331,test_run,3.0.6,59.96829883862001,
48,EFW,EFW_18_nummer_070319.wav,j,c ,,,,,0,57,57,47,,,,,,,,,,,,,,,j,1,0.6022592169993004,,,102,001,2019_Mar_13_1331,test_run,3.0.6,59.96829883862001,
70,EFW,EFW_40_miljoner_070319.wav,j,c ,,,,,0,58,58,69,,,,,,,,,,,,,,,j,1,0.4194807870007935,,,102,001,2019_Mar_13_1331,test_run,3.0.6,59.96829883862001,
57,EFW,EFW_27_analysera_070319.wav,j,c ,,,,,0,59,59,56,,,,,,,,,,,,,,,j,1,0.4363857820007979,,,102,001,2019_Mar_13_1331,test_run,3.0.6,59.96829883862001,
154,ENW,ENW_64_havskvare_150219.wav,n,c ,,,,,0,60,60,153,,,,,,,,,,,,,,,n,1,0.5020763939992321,,,102,001,2019_Mar_13_1331,test_run,3.0.6,59.96829883862001,
157,ENW,ENW_67_oafreskar_150219.wav,n,c ,,,,,0,61,61,156,,,,,,,,,,,,,,,n,1,0.36900235599932785,,,102,001,2019_Mar_13_1331,test_run,3.0.6,59.96829883862001,
64,EFW,EFW_34_sommar_070319.wav,j,c ,,,,,0,62,62,63,,,,,,,,,,,,,,,j,1,0.336093637999511,,,102,001,2019_Mar_13_1331,test_run,3.0.6,59.96829883862001,
77,EFW,EFW_47_invoanare_070319.wav,j,c ,,,,,0,63,63,76,,,,,,,,,,,,,,,j,1,0.30319754400079546,,,102,001,2019_Mar_13_1331,test_run,3.0.6,59.96829883862001,
62,EFW,EFW_32_fyller_070319.wav,j,c ,,,,,0,64,64,61,,,,,,,,,,,,,,,j,1,0.73589314200035,,,102,001,2019_Mar_13_1331,test_run,3.0.6,59.96829883862001,
27,ECW,ECW_27_panorama_070319.wav,j,c ,,,,,0,65,65,26,,,,,,,,,,,,,,,j,1,0.5192613510007504,,,102,001,2019_Mar_13_1331,test_run,3.0.6,59.96829883862001,
136,ENW,ENW_46_pommera_150219.wav,n,c ,,,,,0,66,66,135,,,,,,,,,,,,,,,n,1,0.7190618629992969,,,102,001,2019_Mar_13_1331,test_run,3.0.6,59.96829883862001,
74,EFW,EFW_44_ljusa_070319.wav,j,c ,,,,,0,67,67,73,,,,,,,,,,,,,,,j,1,0.8861672560014995,,,102,001,2019_Mar_13_1331,test_run,3.0.6,59.96829883862001,
55,EFW,EFW_25_informera_070319.wav,j,c ,,,,,0,68,68,54,,,,,,,,,,,,,,,j,1,0.3366171369998483,,,102,001,2019_Mar_13_1331,test_run,3.0.6,59.96829883862001,
58,EFW,EFW_28_olja_070319.wav,j,c ,,,,,0,69,69,57,,,,,,,,,,,,,,,j,1,1.6521644109998306,,,102,001,2019_Mar_13_1331,test_run,3.0.6,59.96829883862001,
35,EFW,EFW_5_samhaalle_070319.wav,j,c ,,,,,0,70,70,34,,,,,,,,,,,,,,,j,1,0.2856664430000819,,,102,001,2019_Mar_13_1331,test_run,3.0.6,59.96829883862001,
40,EFW,EFW_10_laarare_070319.wav,j,c ,,,,,0,71,71,39,,,,,,,,,,,,,,,j,1,0.2525516459991195,,,102,001,2019_Mar_13_1331,test_run,3.0.6,59.96829883862001,
89,EFW,EFW_59_filosofin_070319.wav,j,c ,,,,,0,72,72,88,,,,,,,,,,,,,,,j,1,0.30044841900053143,,,102,001,2019_Mar_13_1331,test_run,3.0.6,59.96829883862001,
175,ENW,ENW_85_forlinna_150219.wav,n,c ,,,,,0,73,73,174,,,,,,,,,,,,,,,n,1,0.28574959300021874,,,102,001,2019_Mar_13_1331,test_run,3.0.6,59.96829883862001,
160,ENW,ENW_70_roklarner_150219.wav,n,c ,,,,,0,74,74,159,,,,,,,,,,,,,,,n,1,0.3023391149999952,,,102,001,2019_Mar_13_1331,test_run,3.0.6,59.96829883862001,
131,ENW,ENW_41_vessmaren_150219.wav,n,c ,,,,,0,75,75,130,,,,,,,,,,,,,,,n,1,0.3022659990001557,,,102,001,2019_Mar_13_1331,test_run,3.0.6,59.96829883862001,
31,EFW,EFW_1_allmaan_070319.wav,j,c ,,,,,0,76,76,30,,,,,,,,,,,,,,,j,1,0.5355972369998199,,,102,001,2019_Mar_13_1331,test_run,3.0.6,59.96829883862001,
132,ENW,ENW_42_hamsforing_150219.wav,n,c ,,,,,0,77,77,131,,,,,,,,,,,,,,,n,1,0.15277927999886742,,,102,001,2019_Mar_13_1331,test_run,3.0.6,59.96829883862001,
13,ECW,ECW_13_kanonform_070319.wav,j,c ,,,,,0,78,78,12,,,,,,,,,,,,,,,j,1,0.8689437489992997,,,102,001,2019_Mar_13_1331,test_run,3.0.6,59.96829883862001,
24,ECW,ECW_24_fysiker_070319.wav,j,c ,,,,,0,79,79,23,,,,,,,,,,,,,,,j,1,0.9027557760000491,,,102,001,2019_Mar_13_1331,test_run,3.0.6,59.96829883862001,
61,EFW,EFW_31_jaamfoera_070319.wav,j,c ,,,,,0,80,80,60,,,,,,,,,,,,,,,j,1,0.9336724660006439,,,102,001,2019_Mar_13_1331,test_run,3.0.6,59.96829883862001,
120,ENW,ENW_30_sojera_150219.wav,n,c ,,,,,0,81,81,119,,,,,,,,,,,,,,,n,1,0.35269695200076967,,,102,001,2019_Mar_13_1331,test_run,3.0.6,59.96829883862001,
2,ECW,ECW_2_hinna_070319.wav,j,c ,,,,,0,82,82,1,,,,,,,,,,,,,,,j,1,0.36888168699988455,,,102,001,2019_Mar_13_1331,test_run,3.0.6,59.96829883862001,
101,ENW,ENW_11_fränna_150219.wav,n,c ,,,,,0,83,83,100,,,,,,,,,,,,,,,n,1,0.283618995001234,,,102,001,2019_Mar_13_1331,test_run,3.0.6,59.96829883862001,
67,EFW,EFW_37_foervisso_070319.wav,j,c ,,,,,0,84,84,66,,,,,,,,,,,,,,,j,1,0.31918075700014015,,,102,001,2019_Mar_13_1331,test_run,3.0.6,59.96829883862001,
37,EFW,EFW_7_sociala_070319.wav,j,c ,,,,,0,85,85,36,,,,,,,,,,,,,,,j,1,0.3198741380001593,,,102,001,2019_Mar_13_1331,test_run,3.0.6,59.96829883862001,
1,ECW,ECW_1_anka_070319.wav,j,c ,,,,,0,86,86,0,,,,,,,,,,,,,,,j,1,0.502182686001106,,,102,001,2019_Mar_13_1331,test_run,3.0.6,59.96829883862001,
95,ENW,ENW_5_spoamisk_150219.wav,n,c ,,,,,0,87,87,94,,,,,,,,,,,,,,,n,1,0.3527318489996105,,,102,001,2019_Mar_13_1331,test_run,3.0.6,59.96829883862001,
174,ENW,ENW_84_hurmarna_150219.wav,n,c ,,,,,0,88,88,173,,,,,,,,,,,,,,,n,1,0.6689710270002251,,,102,001,2019_Mar_13_1331,test_run,3.0.6,59.96829883862001,
10,ECW,ECW_10_flisa_070319.wav,j,c ,,,,,0,89,89,9,,,,,,,,,,,,,,,j,1,0.3358772579995275,,,102,001,2019_Mar_13_1331,test_run,3.0.6,59.96829883862001,
3,ECW,ECW_3_virus_070319.wav,j,c ,,,,,0,90,90,2,,,,,,,,,,,,,,,j,1,0.4860578770003485,,,102,001,2019_Mar_13_1331,test_run,3.0.6,59.96829883862001,
125,ENW,ENW_35_nymaljen_150219.wav,n,c ,,,,,0,91,91,124,,,,,,,,,,,,,,,n,1,1.0837309189992084,,,102,001,2019_Mar_13_1331,test_run,3.0.6,59.96829883862001,
104,ENW,ENW_14_kärmenor_150219.wav,n,c ,,,,,0,92,92,103,,,,,,,,,,,,,,,n,1,0.38601903900053003,,,102,001,2019_Mar_13_1331,test_run,3.0.6,59.96829883862001,
82,EFW,EFW_52_framhoalla_070319.wav,j,c ,,,,,0,93,93,81,,,,,,,,,,,,,,,j,1,0.33549807899908046,,,102,001,2019_Mar_13_1331,test_run,3.0.6,59.96829883862001,
8,ECW,ECW_8_fryshus_070319.wav,j,c ,,,,,0,94,94,7,,,,,,,,,,,,,,,j,1,0.7190386889997171,,,102,001,2019_Mar_13_1331,test_run,3.0.6,59.96829883862001,
52,EFW,EFW_22_normala_070319.wav,j,c ,,,,,0,95,95,51,,,,,,,,,,,,,,,j,1,0.5532061439989775,,,102,001,2019_Mar_13_1331,test_run,3.0.6,59.96829883862001,
63,EFW,EFW_33_elva_070319.wav,j,c ,,,,,0,96,96,62,,,,,,,,,,,,,,,j,1,0.6360323469998548,,,102,001,2019_Mar_13_1331,test_run,3.0.6,59.96829883862001,
73,EFW,EFW_43_halvoar_070319.wav,j,c ,,,,,0,97,97,72,,,,,,,,,,,,,,,j,1,0.6528269820009882,,,102,001,2019_Mar_13_1331,test_run,3.0.6,59.96829883862001,
172,ENW,ENW_82_värskappa_150219.wav,n,c ,,,,,0,98,98,171,,,,,,,,,,,,,,,n,1,0.8689544789995125,,,102,001,2019_Mar_13_1331,test_run,3.0.6,59.96829883862001,
4,ECW,ECW_4_skraalla_070319.wav,j,c ,,,,,0,99,99,3,,,,,,,,,,,,,,,j,1,0.269107290001557,,,102,001,2019_Mar_13_1331,test_run,3.0.6,59.96829883862001,
36,EFW,EFW_6_massa_070319.wav,j,c ,,,,,0,100,100,35,,,,,,,,,,,,,,,j,1,0.33571393999955035,,,102,001,2019_Mar_13_1331,test_run,3.0.6,59.96829883862001,
92,ENW,ENW_2_overralka_150219.wav,n,c ,,,,,0,101,101,91,,,,,,,,,,,,,,,n,1,0.30272774300101446,,,102,001,2019_Mar_13_1331,test_run,3.0.6,59.96829883862001,
85,EFW,EFW_55_oroar_070319.wav,j,c ,,,,,0,102,102,84,,,,,,,,,,,,,,,j,1,0.5003536679996614,,,102,001,2019_Mar_13_1331,test_run,3.0.6,59.96829883862001,
167,ENW,ENW_77_somfera_150219.wav,n,c ,,,,,0,103,103,166,,,,,,,,,,,,,,,n,1,0.5025710120007716,,,102,001,2019_Mar_13_1331,test_run,3.0.6,59.96829883862001,
87,EFW,EFW_57_loenerna_070319.wav,j,c ,,,,,0,104,104,86,,,,,,,,,,,,,,,j,1,0.2866653769997356,,,102,001,2019_Mar_13_1331,test_run,3.0.6,59.96829883862001,
150,ENW,ENW_60_lackpenar_150219.wav,n,c ,,,,,0,105,105,149,,,,,,,,,,,,,,,n,1,0.5689393500015285,,,102,001,2019_Mar_13_1331,test_run,3.0.6,59.96829883862001,
98,ENW,ENW_8_haväras_150219.wav,n,c ,,,,,0,106,106,97,,,,,,,,,,,,,,,n,1,0.669604368000364,,,102,001,2019_Mar_13_1331,test_run,3.0.6,59.96829883862001,
152,ENW,ENW_62_ljullepilja_150219.wav,n,c ,,,,,0,107,107,151,,,,,,,,,,,,,,,n,1,0.9695352029993956,,,102,001,2019_Mar_13_1331,test_run,3.0.6,59.96829883862001,
38,EFW,EFW_8_samman_070319.wav,j,c ,,,,,0,108,108,37,,,,,,,,,,,,,,,j,1,0.4022312220004096,,,102,001,2019_Mar_13_1331,test_run,3.0.6,59.96829883862001,
103,ENW,ENW_13_forvaron_150219.wav,n,c ,,,,,0,109,109,102,,,,,,,,,,,,,,,n,1,0.7024216750014602,,,102,001,2019_Mar_13_1331,test_run,3.0.6,59.96829883862001,
49,EFW,EFW_19_roerelse_070319.wav,j,c ,,,,,0,110,110,48,,,,,,,,,,,,,,,j,1,1.6189622700003383,,,102,001,2019_Mar_13_1331,test_run,3.0.6,59.96829883862001,
5,ECW,ECW_5_kamma_070319.wav,j,c ,,,,,0,111,111,4,,,,,,,,,,,,,,,j,1,1.6688897760013788,,,102,001,2019_Mar_13_1331,test_run,3.0.6,59.96829883862001,
147,ENW,ENW_57_flovanning_150219.wav,n,c ,,,,,0,112,112,146,,,,,,,,,,,,,,,n,1,0.8857650789996114,,,102,001,2019_Mar_13_1331,test_run,3.0.6,59.96829883862001,
46,EFW,EFW_16_lyssna_070319.wav,j,c ,,,,,0,113,113,45,,,,,,,,,,,,,,,j,1,0.5170340339991526,,,102,001,2019_Mar_13_1331,test_run,3.0.6,59.96829883862001,
121,ENW,ENW_31_romation_150219.wav,n,c ,,,,,0,114,114,120,,,,,,,,,,,,,,,n,1,0.48608761799914646,,,102,001,2019_Mar_13_1331,test_run,3.0.6,59.96829883862001,
153,ENW,ENW_63_femyrisk_150219.wav,n,c ,,,,,0,115,115,152,,,,,,,,,,,,,,,n,1,0.3529799610005284,,,102,001,2019_Mar_13_1331,test_run,3.0.6,59.96829883862001,
22,ECW,ECW_22_anonyma_070319.wav,j,c ,,,,,0,116,116,21,,,,,,,,,,,,,,,j,1,0.48594435099948896,,,102,001,2019_Mar_13_1331,test_run,3.0.6,59.96829883862001,
124,ENW,ENW_34_jomera_150219.wav,n,c ,,,,,0,117,117,123,,,,,,,,,,,,,,,n,1,0.6857688580003014,,,102,001,2019_Mar_13_1331,test_run,3.0.6,59.96829883862001,
108,ENW,ENW_18_moalursena_150219.wav,n,c ,,,,,0,118,118,107,,,,,,,,,,,,,,,n,1,0.7188530450002872,,,102,001,2019_Mar_13_1331,test_run,3.0.6,59.96829883862001,
111,ENW,ENW_21_tjulning_150219.wav,n,c ,,,,,0,119,119,110,,,,,,,,,,,,,,,j,0,1.8526327929994295,,,102,001,2019_Mar_13_1331,test_run,3.0.6,59.96829883862001,
142,ENW,ENW_52_filofyll_150219.wav,n,c ,,,,,0,120,120,141,,,,,,,,,,,,,,,n,1,0.9526862160000746,,,102,001,2019_Mar_13_1331,test_run,3.0.6,59.96829883862001,
39,EFW,EFW_9_infektion_070319.wav,j,c ,,,,,0,121,121,38,,,,,,,,,,,,,,,j,1,0.46921681499952683,,,102,001,2019_Mar_13_1331,test_run,3.0.6,59.96829883862001,
23,ECW,ECW_23_maximal_070319.wav,j,c ,,,,,0,122,122,22,,,,,,,,,,,,,,,j,1,0.5505496099995071,,,102,001,2019_Mar_13_1331,test_run,3.0.6,59.96829883862001,
69,EFW,EFW_39_foersvara_070319.wav,j,c ,,,,,0,123,123,68,,,,,,,,,,,,,,,j,1,0.46987005899973155,,,102,001,2019_Mar_13_1331,test_run,3.0.6,59.96829883862001,
122,ENW,ENW_32_fonering_150219.wav,n,c ,,,,,0,124,124,121,,,,,,,,,,,,,,,n,1,0.4358334369990189,,,102,001,2019_Mar_13_1331,test_run,3.0.6,59.96829883862001,
168,ENW,ENW_78_morvinder_150219.wav,n,c ,,,,,0,125,125,167,,,,,,,,,,,,,,,n,1,0.5522670709997328,,,102,001,2019_Mar_13_1331,test_run,3.0.6,59.96829883862001,
141,ENW,ENW_51_skillare_150219.wav,n,c ,,,,,0,126,126,140,,,,,,,,,,,,,,,n,1,0.6198833719990944,,,102,001,2019_Mar_13_1331,test_run,3.0.6,59.96829883862001,
118,ENW,ENW_28_läkermask_150219.wav,n,c ,,,,,0,127,127,117,,,,,,,,,,,,,,,j,0,1.7864229150000028,,,102,001,2019_Mar_13_1331,test_run,3.0.6,59.96829883862001,
86,EFW,EFW_56_mormor_070319.wav,j,c ,,,,,0,128,128,85,,,,,,,,,,,,,,,j,1,0.5004724440004793,,,102,001,2019_Mar_13_1331,test_run,3.0.6,59.96829883862001,
6,ECW,ECW_6_sila_070319.wav,j,c ,,,,,0,129,129,5,,,,,,,,,,,,,,,n,0,0.8358342120009183,,,102,001,2019_Mar_13_1331,test_run,3.0.6,59.96829883862001,
19,ECW,ECW_19_persiska_070319.wav,j,c ,,,,,0,130,130,18,,,,,,,,,,,,,,,j,1,0.7530970700008766,,,102,001,2019_Mar_13_1331,test_run,3.0.6,59.96829883862001,
15,ECW,ECW_15_tjuvarna_070319.wav,j,c ,,,,,0,131,131,14,,,,,,,,,,,,,,,j,1,0.46941353699912725,,,102,001,2019_Mar_13_1331,test_run,3.0.6,59.96829883862001,
53,EFW,EFW_23_aamne_070319.wav,j,c ,,,,,0,132,132,52,,,,,,,,,,,,,,,j,1,0.8862703290014906,,,102,001,2019_Mar_13_1331,test_run,3.0.6,59.96829883862001,
76,EFW,EFW_46_foerhoer_070319.wav,j,c ,,,,,0,133,133,75,,,,,,,,,,,,,,,j,1,0.4023368660000415,,,102,001,2019_Mar_13_1331,test_run,3.0.6,59.96829883862001,
113,ENW,ENW_23_allsänning_150219.wav,n,c ,,,,,0,134,134,112,,,,,,,,,,,,,,,n,1,1.3187753210004303,,,102,001,2019_Mar_13_1331,test_run,3.0.6,59.96829883862001,
180,ENW,ENW_90_skrivinar_150219.wav,n,c ,,,,,0,135,135,179,,,,,,,,,,,,,,,n,1,0.7856661050009279,,,102,001,2019_Mar_13_1331,test_run,3.0.6,59.96829883862001,
105,ENW,ENW_15_forfeckla_150219.wav,n,c ,,,,,0,136,136,104,,,,,,,,,,,,,,,n,1,0.7360367159999441,,,102,001,2019_Mar_13_1331,test_run,3.0.6,59.96829883862001,
51,EFW,EFW_21_varierar_070319.wav,j,c ,,,,,0,137,137,50,,,,,,,,,,,,,,,j,1,0.18615540999962832,,,102,001,2019_Mar_13_1331,test_run,3.0.6,59.96829883862001,
128,ENW,ENW_38_roakanier_150219.wav,n,c ,,,,,0,138,138,127,,,,,,,,,,,,,,,n,1,0.4855166779998399,,,102,001,2019_Mar_13_1331,test_run,3.0.6,59.96829883862001,
109,ENW,ENW_19_morloren_150219.wav,n,c ,,,,,0,139,139,108,,,,,,,,,,,,,,,n,1,0.2863533810013905,,,102,001,2019_Mar_13_1331,test_run,3.0.6,59.96829883862001,
28,ECW,ECW_28_maskinerna_070319.wav,j,c ,,,,,0,140,140,27,,,,,,,,,,,,,,,j,1,0.48388464500021655,,,102,001,2019_Mar_13_1331,test_run,3.0.6,59.96829883862001,
163,ENW,ENW_73_vimmankalla_150219.wav,n,c ,,,,,0,141,141,162,,,,,,,,,,,,,,,n,1,0.6171699320002517,,,102,001,2019_Mar_13_1331,test_run,3.0.6,59.96829883862001,
80,EFW,EFW_50_snaalla_070319.wav,j,c ,,,,,0,142,142,79,,,,,,,,,,,,,,,j,1,0.4363744640013465,,,102,001,2019_Mar_13_1331,test_run,3.0.6,59.96829883862001,
18,ECW,ECW_18_morkulla_070319.wav,j,c ,,,,,0,143,143,17,,,,,,,,,,,,,,,j,1,0.46910868599843525,,,102,001,2019_Mar_13_1331,test_run,3.0.6,59.96829883862001,
79,EFW,EFW_49_vaasen_070319.wav,j,c ,,,,,0,144,144,78,,,,,,,,,,,,,,,j,1,0.717231131000517,,,102,001,2019_Mar_13_1331,test_run,3.0.6,59.96829883862001,
97,ENW,ENW_7_flasera_150219.wav,n,c ,,,,,0,145,145,96,,,,,,,,,,,,,,,n,1,0.46894022100059374,,,102,001,2019_Mar_13_1331,test_run,3.0.6,59.96829883862001,
179,ENW,ENW_89_mikenspoan_150219.wav,n,c ,,,,,0,146,146,178,,,,,,,,,,,,,,,n,1,0.5194426849993761,,,102,001,2019_Mar_13_1331,test_run,3.0.6,59.96829883862001,
176,ENW,ENW_86_heloppsin_150219.wav,n,c ,,,,,0,147,147,175,,,,,,,,,,,,,,,n,1,0.8836846829999558,,,102,001,2019_Mar_13_1331,test_run,3.0.6,59.96829883862001,
41,EFW,EFW_11_maanniskor_070319.wav,j,c ,,,,,0,148,148,40,,,,,,,,,,,,,,,j,1,0.6190360330001567,,,102,001,2019_Mar_13_1331,test_run,3.0.6,59.96829883862001,
75,EFW,EFW_45_innanfoer_070319.wav,j,c ,,,,,0,149,149,74,,,,,,,,,,,,,,,j,1,0.4190225129987084,,,102,001,2019_Mar_13_1331,test_run,3.0.6,59.96829883862001,
149,ENW,ENW_59_kyrkmänning_150219.wav,n,c ,,,,,0,150,150,148,,,,,,,,,,,,,,,j,0,2.286145141999441,,,102,001,2019_Mar_13_1331,test_run,3.0.6,59.96829883862001,
169,ENW,ENW_79_lyxmare_150219.wav,n,c ,,,,,0,151,151,168,,,,,,,,,,,,,,,n,1,0.835435723000046,,,102,001,2019_Mar_13_1331,test_run,3.0.6,59.96829883862001,
42,EFW,EFW_12_foeremoal_070319.wav,j,c ,,,,,0,152,152,41,,,,,,,,,,,,,,,j,1,0.3190251479991275,,,102,001,2019_Mar_13_1331,test_run,3.0.6,59.96829883862001,
148,ENW,ENW_58_malvossa_150219.wav,n,c ,,,,,0,153,153,147,,,,,,,,,,,,,,,n,1,0.46898413199960487,,,102,001,2019_Mar_13_1331,test_run,3.0.6,59.96829883862001,
143,ENW,ENW_53_svarmvisso_150219.wav,n,c ,,,,,0,154,154,142,,,,,,,,,,,,,,,n,1,0.8697670809997362,,,102,001,2019_Mar_13_1331,test_run,3.0.6,59.96829883862001,
26,ECW,ECW_26_kroenikoeren_070319.wav,j,c ,,,,,0,155,155,25,,,,,,,,,,,,,,,j,1,0.7695056150005257,,,102,001,2019_Mar_13_1331,test_run,3.0.6,59.96829883862001,
164,ENW,ENW_74_malsera_150219.wav,n,c ,,,,,0,156,156,163,,,,,,,,,,,,,,,n,1,0.6361888649989851,,,102,001,2019_Mar_13_1331,test_run,3.0.6,59.96829883862001,
81,EFW,EFW_51_seminarier_070319.wav,j,c ,,,,,0,157,157,80,,,,,,,,,,,,,,,j,1,0.43626688299991656,,,102,001,2019_Mar_13_1331,test_run,3.0.6,59.96829883862001,
43,EFW,EFW_13_elever_070319.wav,j,c ,,,,,0,158,158,42,,,,,,,,,,,,,,,j,1,0.7859724190002453,,,102,001,2019_Mar_13_1331,test_run,3.0.6,59.96829883862001,
106,ENW,ENW_16_rolinkar_150219.wav,n,c ,,,,,0,159,159,105,,,,,,,,,,,,,,,n,1,1.3170273429986992,,,102,001,2019_Mar_13_1331,test_run,3.0.6,59.96829883862001,
107,ENW,ENW_17_kopynnor_150219.wav,n,c ,,,,,0,160,160,106,,,,,,,,,,,,,,,n,1,0.8864178289986739,,,102,001,2019_Mar_13_1331,test_run,3.0.6,59.96829883862001,
14,ECW,ECW_14_excellens_070319.wav,j,c ,,,,,0,161,161,13,,,,,,,,,,,,,,,j,1,0.935831248998511,,,102,001,2019_Mar_13_1331,test_run,3.0.6,59.96829883862001,
156,ENW,ENW_66_voarsmenar_150219.wav,n,c ,,,,,0,162,162,155,,,,,,,,,,,,,,,n,1,0.702560211000673,,,102,001,2019_Mar_13_1331,test_run,3.0.6,59.96829883862001,
83,EFW,EFW_53_sovrum_070319.wav,j,c ,,,,,0,163,163,82,,,,,,,,,,,,,,,j,1,0.41918735400031437,,,102,001,2019_Mar_13_1331,test_run,3.0.6,59.96829883862001,
25,ECW,ECW_25_oeverfoeras_070319.wav,j,c ,,,,,0,164,164,24,,,,,,,,,,,,,,,j,1,0.35280235900063417,,,102,001,2019_Mar_13_1331,test_run,3.0.6,59.96829883862001,
119,ENW,ENW_29_uppskira_150219.wav,n,c ,,,,,0,165,165,118,,,,,,,,,,,,,,,n,1,1.286441090000153,,,102,001,2019_Mar_13_1331,test_run,3.0.6,59.96829883862001,
59,EFW,EFW_29_formen_070319.wav,j,c ,,,,,0,166,166,58,,,,,,,,,,,,,,,j,1,0.4191477299991675,,,102,001,2019_Mar_13_1331,test_run,3.0.6,59.96829883862001,
139,ENW,ENW_49_hälskrena_150219.wav,n,c ,,,,,0,167,167,138,,,,,,,,,,,,,,,n,1,0.48572252499980095,,,102,001,2019_Mar_13_1331,test_run,3.0.6,59.96829883862001,
84,EFW,EFW_54_romaner_070319.wav,j,c ,,,,,0,168,168,83,,,,,,,,,,,,,,,j,1,0.3523833899998863,,,102,001,2019_Mar_13_1331,test_run,3.0.6,59.96829883862001,
129,ENW,ENW_39_ljusonar_150219.wav,n,c ,,,,,0,169,169,128,,,,,,,,,,,,,,,n,1,0.65316042700033,,,102,001,2019_Mar_13_1331,test_run,3.0.6,59.96829883862001,
78,EFW,EFW_48_varifroan_070319.wav,j,c ,,,,,0,170,170,77,,,,,,,,,,,,,,,j,1,0.3529085259997373,,,102,001,2019_Mar_13_1331,test_run,3.0.6,59.96829883862001,
17,ECW,ECW_17_majonnaas_070319.wav,j,c ,,,,,0,171,171,16,,,,,,,,,,,,,,,j,1,0.4358224620009423,,,102,001,2019_Mar_13_1331,test_run,3.0.6,59.96829883862001,
135,ENW,ENW_45_fammoarens_150219.wav,n,c ,,,,,0,172,172,134,,,,,,,,,,,,,,,n,1,0.535594963001131,,,102,001,2019_Mar_13_1331,test_run,3.0.6,59.96829883862001,
112,ENW,ENW_22_fjäserna_150219.wav,n,c ,,,,,0,173,173,111,,,,,,,,,,,,,,,n,1,0.5688787630006118,,,102,001,2019_Mar_13_1331,test_run,3.0.6,59.96829883862001,
21,ECW,ECW_21_husera_070319.wav,j,c ,,,,,0,174,174,20,,,,,,,,,,,,,,,j,1,0.46969877000083216,,,102,001,2019_Mar_13_1331,test_run,3.0.6,59.96829883862001,
116,ENW,ENW_26_anufera_150219.wav,n,c ,,,,,0,175,175,115,,,,,,,,,,,,,,,n,1,0.3523536200009403,,,102,001,2019_Mar_13_1331,test_run,3.0.6,59.96829883862001,
68,EFW,EFW_38_foerefoell_070319.wav,j,c ,,,,,0,176,176,67,,,,,,,,,,,,,,,j,1,0.4357475569995586,,,102,001,2019_Mar_13_1331,test_run,3.0.6,59.96829883862001,
50,EFW,EFW_20_fenomen_070319.wav,j,c ,,,,,0,177,177,49,,,,,,,,,,,,,,,j,1,0.3527486269995279,,,102,001,2019_Mar_13_1331,test_run,3.0.6,59.96829883862001,
30,ECW,ECW_30_recensioner_070319.wav,j,c ,,,,,0,178,178,29,,,,,,,,,,,,,,,j,1,0.3693435919994954,,,102,001,2019_Mar_13_1331,test_run,3.0.6,59.96829883862001,
151,ENW,ENW_61_myckskina_150219.wav,n,c ,,,,,0,179,179,150,,,,,,,,,,,,,,,n,1,0.3187679490001756,,,102,001,2019_Mar_13_1331,test_run,3.0.6,59.96829883862001,
5,TTF,TTF_5_voat_070319.wav,,,1,rating_t_final.csv,t,final,,,,,0,0,0,0,0,0,0,1,0,0,0,4,,,,,,2,6.737,102,001,2019_Mar_13_1331,test_run,3.0.6,59.96829883862001,
26,TDF,TDF_26_rymd_070319.wav,,,1,rating_t_final.csv,t,final,,,,,0,0,0,0,0,0,0,1,0,1,1,25,,,,,,1,3.27,102,001,2019_Mar_13_1331,test_run,3.0.6,59.96829883862001,
17,TDF,TDF_17_sked_070319.wav,,,1,rating_t_final.csv,t,final,,,,,0,0,0,0,0,0,0,1,0,2,2,16,,,,,,1,5.238,102,001,2019_Mar_13_1331,test_run,3.0.6,59.96829883862001,
21,TDF,TDF_21_ljod _070319.wav,,,1,rating_t_final.csv,t,final,,,,,0,0,0,0,0,0,0,1,0,3,3,20,,,,,,2,2.987,102,001,2019_Mar_13_1331,test_run,3.0.6,59.96829883862001,
32,TDF,TDF_32_hoard_070319.wav,,,1,rating_t_final.csv,t,final,,,,,0,0,0,0,0,0,0,1,0,4,4,31,,,,,,7,2.221,102,001,2019_Mar_13_1331,test_run,3.0.6,59.96829883862001,
10,TTF,TTF_10_broet_070319.wav,,,1,rating_t_final.csv,t,final,,,,,0,0,0,0,0,0,0,1,0,5,5,9,,,,,,7,1.537,102,001,2019_Mar_13_1331,test_run,3.0.6,59.96829883862001,
7,TTF,TTF_7_vit_070319.wav,,,1,rating_t_final.csv,t,final,,,,,0,0,0,0,0,0,0,1,0,6,6,6,,,,,,7,1.204,102,001,2019_Mar_13_1331,test_run,3.0.6,59.96829883862001,
15,TTF,TTF_15_not_070319.wav,,,1,rating_t_final.csv,t,final,,,,,0,0,0,0,0,0,0,1,0,7,7,14,,,,,,7,0.953,102,001,2019_Mar_13_1331,test_run,3.0.6,59.96829883862001,
18,TDF,TDF_18_sjud_070319.wav,,,1,rating_t_final.csv,t,final,,,,,0,0,0,0,0,0,0,1,0,8,8,17,,,,,,1,1.237,102,001,2019_Mar_13_1331,test_run,3.0.6,59.96829883862001,
24,TDF,TDF_24_smid_070319.wav,,,1,rating_t_final.csv,t,final,,,,,0,0,0,0,0,0,0,1,0,9,9,23,,,,,,1,1.271,102,001,2019_Mar_13_1331,test_run,3.0.6,59.96829883862001,
30,TDF,TDF_30_sladd_070319.wav,,,1,rating_t_final.csv,t,final,,,,,0,0,0,0,0,0,0,1,0,10,10,29,,,,,,1,0.837,102,001,2019_Mar_13_1331,test_run,3.0.6,59.96829883862001,
3,TTF,TTF_3_raat_070319.wav,,,1,rating_t_final.csv,t,final,,,,,0,0,0,0,0,0,0,1,0,11,11,2,,,,,,6,1.938,102,001,2019_Mar_13_1331,test_run,3.0.6,59.96829883862001,
20,TDF,TDF_20_god_070319.wav,,,1,rating_t_final.csv,t,final,,,,,0,0,0,0,0,0,0,1,0,12,12,19,,,,,,4,4.271,102,001,2019_Mar_13_1331,test_run,3.0.6,59.96829883862001,
1,TTF,TTF_1_rit_070319.wav,,,1,rating_t_final.csv,t,final,,,,,0,0,0,0,0,0,0,1,0,13,13,0,,,,,,7,0.954,102,001,2019_Mar_13_1331,test_run,3.0.6,59.96829883862001,
12,TTF,TTF_12_smet_070319.wav,,,1,rating_t_final.csv,t,final,,,,,0,0,0,0,0,0,0,1,0,14,14,11,,,,,,7,0.604,102,001,2019_Mar_13_1331,test_run,3.0.6,59.96829883862001,
25,TDF,TDF_25_synd_070319.wav,,,1,rating_t_final.csv,t,final,,,,,0,0,0,0,0,0,0,1,0,15,15,24,,,,,,3,2.987,102,001,2019_Mar_13_1331,test_run,3.0.6,59.96829883862001,
28,TDF,TDF_28_brand_070319.wav,,,1,rating_t_final.csv,t,final,,,,,0,0,0,0,0,0,0,1,0,16,16,27,,,,,,4,3.671,102,001,2019_Mar_13_1331,test_run,3.0.6,59.96829883862001,
9,TTF,TTF_9_bot_070319.wav,,,1,rating_t_final.csv,t,final,,,,,0,0,0,0,0,0,0,1,0,17,17,8,,,,,,7,1.12,102,001,2019_Mar_13_1331,test_run,3.0.6,59.96829883862001,
31,TDF,TDF_31_brodd_070319.wav,,,1,rating_t_final.csv,t,final,,,,,0,0,0,0,0,0,0,1,0,18,18,30,,,,,,7,0.587,102,001,2019_Mar_13_1331,test_run,3.0.6,59.96829883862001,
6,TTF,TTF_6_voart_070319.wav,,,1,rating_t_final.csv,t,final,,,,,0,0,0,0,0,0,0,1,0,19,19,5,,,,,,7,0.739,102,001,2019_Mar_13_1331,test_run,3.0.6,59.96829883862001,
14,TTF,TTF_14_mot_070319.wav,,,1,rating_t_final.csv,t,final,,,,,0,0,0,0,0,0,0,1,0,20,20,13,,,,,,7,1.52,102,001,2019_Mar_13_1331,test_run,3.0.6,59.96829883862001,
23,TDF,TDF_23_hud_070319.wav,,,1,rating_t_final.csv,t,final,,,,,0,0,0,0,0,0,0,1,0,21,21,22,,,,,,2,1.703,102,001,2019_Mar_13_1331,test_run,3.0.6,59.96829883862001,
16,TTF,TTF_16_font_070319.wav,,,1,rating_t_final.csv,t,final,,,,,0,0,0,0,0,0,0,1,0,22,22,15,,,,,,6,1.62,102,001,2019_Mar_13_1331,test_run,3.0.6,59.96829883862001,
13,TTF,TTF_13_gjut_070319.wav,,,1,rating_t_final.csv,t,final,,,,,0,0,0,0,0,0,0,1,0,23,23,12,,,,,,5,0.671,102,001,2019_Mar_13_1331,test_run,3.0.6,59.96829883862001,
4,TTF,TTF_4_roet_070319.wav,,,1,rating_t_final.csv,t,final,,,,,0,0,0,0,0,0,0,1,0,24,24,3,,,,,,6,1.421,102,001,2019_Mar_13_1331,test_run,3.0.6,59.96829883862001,
27,TDF,TDF_27_sand_070319.wav,,,1,rating_t_final.csv,t,final,,,,,0,0,0,0,0,0,0,1,0,25,25,26,,,,,,4,3.904,102,001,2019_Mar_13_1331,test_run,3.0.6,59.96829883862001,
8,TTF,TTF_8_noet_070319.wav,,,1,rating_t_final.csv,t,final,,,,,0,0,0,0,0,0,0,1,0,26,26,7,,,,,,4,2.62,102,001,2019_Mar_13_1331,test_run,3.0.6,59.96829883862001,
22,TDF,TDF_22_hed_070319.wav,,,1,rating_t_final.csv,t,final,,,,,0,0,0,0,0,0,0,1,0,27,27,21,,,,,,2,4.038,102,001,2019_Mar_13_1331,test_run,3.0.6,59.96829883862001,
2,TTF,TTF_2_vet_070319.wav,,,1,rating_t_final.csv,t,final,,,,,0,0,0,0,0,0,0,1,0,28,28,1,,,,,,6,0.754,102,001,2019_Mar_13_1331,test_run,3.0.6,59.96829883862001,
19,TDF,TDF_19_sjod_070319.wav,,,1,rating_t_final.csv,t,final,,,,,0,0,0,0,0,0,0,1,0,29,29,18,,,,,,1,0.621,102,001,2019_Mar_13_1331,test_run,3.0.6,59.96829883862001,
11,TTF,TTF_11_svit_070319.wav,,,1,rating_t_final.csv,t,final,,,,,0,0,0,0,0,0,0,1,0,30,30,10,,,,,,7,0.771,102,001,2019_Mar_13_1331,test_run,3.0.6,59.96829883862001,
29,TDF,TDF_29_baadd_070319.wav,,,1,rating_t_final.csv,t,final,,,,,0,0,0,0,0,0,0,1,0,31,31,28,,,,,,7,0.688,102,001,2019_Mar_13_1331,test_run,3.0.6,59.96829883862001,
31,TTF,TTF_31_brott_070319.wav,,,1,rating_d_final.csv,d,final,,,,,0,0,0,0,0,1,1,0,0,0,0,30,,,,,,1,1.387,102,001,2019_Mar_13_1331,test_run,3.0.6,59.96829883862001,
24,TTF,TTF_24_smit_070319.wav,,,1,rating_d_final.csv,d,final,,,,,0,0,0,0,0,1,1,0,0,1,1,23,,,,,,1,0.821,102,001,2019_Mar_13_1331,test_run,3.0.6,59.96829883862001,
32,TTF,TTF_32_hoart_070319.wav,,,1,rating_d_final.csv,d,final,,,,,0,0,0,0,0,1,1,0,0,2,2,31,,,,,,1,0.804,102,001,2019_Mar_13_1331,test_run,3.0.6,59.96829883862001,
7,TDF,TDF_7_vid_070319.wav,,,1,rating_d_final.csv,d,final,,,,,0,0,0,0,0,1,1,0,0,3,3,6,,,,,,1,0.67,102,001,2019_Mar_13_1331,test_run,3.0.6,59.96829883862001,
3,TDF,TDF_3_raad_070319.wav,,,1,rating_d_final.csv,d,final,,,,,0,0,0,0,0,1,1,0,0,4,4,2,,,,,,5,2.404,102,001,2019_Mar_13_1331,test_run,3.0.6,59.96829883862001,
22,TTF,TTF_22_het_070319.wav,,,1,rating_d_final.csv,d,final,,,,,0,0,0,0,0,1,1,0,0,5,5,21,,,,,,2,0.588,102,001,2019_Mar_13_1331,test_run,3.0.6,59.96829883862001,
21,TTF,TTF_21_gjoet_070319.wav,,,1,rating_d_final.csv,d,final,,,,,0,0,0,0,0,1,1,0,0,6,6,20,,,,,,2,0.586,102,001,2019_Mar_13_1331,test_run,3.0.6,59.96829883862001,
8,TDF,TDF_8_nod_070319.wav,,,1,rating_d_final.csv,d,final,,,,,0,0,0,0,0,1,1,0,0,7,7,7,,,,,,7,0.787,102,001,2019_Mar_13_1331,test_run,3.0.6,59.96829883862001,
1,TDF,TDF_1_rid_070319.wav,,,1,rating_d_final.csv,d,final,,,,,0,0,0,0,0,1,1,0,0,8,8,0,,,,,,7,0.521,102,001,2019_Mar_13_1331,test_run,3.0.6,59.96829883862001,
6,TDF,TDF_6_voard_070319.wav,,,1,rating_d_final.csv,d,final,,,,,0,0,0,0,0,1,1,0,0,9,9,5,,,,,,7,0.604,102,001,2019_Mar_13_1331,test_run,3.0.6,59.96829883862001,
23,TTF,TTF_23_hut_070319.wav,,,1,rating_d_final.csv,d,final,,,,,0,0,0,0,0,1,1,0,0,10,10,22,,,,,,1,1.353,102,001,2019_Mar_13_1331,test_run,3.0.6,59.96829883862001,
26,TTF,TTF_26_rymt_070319.wav,,,1,rating_d_final.csv,d,final,,,,,0,0,0,0,0,1,1,0,0,11,11,25,,,,,,1,0.653,102,001,2019_Mar_13_1331,test_run,3.0.6,59.96829883862001,
9,TDF,TDF_9_bod_070319.wav,,,1,rating_d_final.csv,d,final,,,,,0,0,0,0,0,1,1,0,0,12,12,8,,,,,,6,1.321,102,001,2019_Mar_13_1331,test_run,3.0.6,59.96829883862001,
20,TTF,TTF_20_got_070319.wav,,,1,rating_d_final.csv,d,final,,,,,0,0,0,0,0,1,1,0,0,13,13,19,,,,,,1,0.471,102,001,2019_Mar_13_1331,test_run,3.0.6,59.96829883862001,
28,TTF,TTF_28_brant_070319.wav,,,1,rating_d_final.csv,d,final,,,,,0,0,0,0,0,1,1,0,0,14,14,27,,,,,,1,0.604,102,001,2019_Mar_13_1331,test_run,3.0.6,59.96829883862001,
15,TDF,TDF_15_nod_070319.wav,,,1,rating_d_final.csv,d,final,,,,,0,0,0,0,0,1,1,0,0,15,15,14,,,,,,7,0.703,102,001,2019_Mar_13_1331,test_run,3.0.6,59.96829883862001,
25,TTF,TTF_25_synt_070319.wav,,,1,rating_d_final.csv,d,final,,,,,0,0,0,0,0,1,1,0,0,16,16,24,,,,,,1,0.787,102,001,2019_Mar_13_1331,test_run,3.0.6,59.96829883862001,
12,TDF,TDF_12_smed_070319.wav,,,1,rating_d_final.csv,d,final,,,,,0,0,0,0,0,1,1,0,0,17,17,11,,,,,,7,0.571,102,001,2019_Mar_13_1331,test_run,3.0.6,59.96829883862001,
5,TDF,TDF_5_voad_070319.wav,,,1,rating_d_final.csv,d,final,,,,,0,0,0,0,0,1,1,0,0,18,18,4,,,,,,7,0.588,102,001,2019_Mar_13_1331,test_run,3.0.6,59.96829883862001,
30,TTF,TTF_30_slatt_070319.wav,,,1,rating_d_final.csv,d,final,,,,,0,0,0,0,0,1,1,0,0,19,19,29,,,,,,1,0.853,102,001,2019_Mar_13_1331,test_run,3.0.6,59.96829883862001,
18,TTF,TTF_18_skjut_070319.wav,,,1,rating_d_final.csv,d,final,,,,,0,0,0,0,0,1,1,0,0,20,20,17,,,,,,1,1.387,102,001,2019_Mar_13_1331,test_run,3.0.6,59.96829883862001,
2,TDF,TDF_2_ved_070319.wav,,,1,rating_d_final.csv,d,final,,,,,0,0,0,0,0,1,1,0,0,21,21,1,,,,,,7,1.187,102,001,2019_Mar_13_1331,test_run,3.0.6,59.96829883862001,
16,TDF,TDF_16_fond_070319.wav,,,1,rating_d_final.csv,d,final,,,,,0,0,0,0,0,1,1,0,0,22,22,15,,,,,,7,0.987,102,001,2019_Mar_13_1331,test_run,3.0.6,59.96829883862001,
11,TDF,TDF_11_svid_070319.wav,,,1,rating_d_final.csv,d,final,,,,,0,0,0,0,0,1,1,0,0,23,23,10,,,,,,2,0.554,102,001,2019_Mar_13_1331,test_run,3.0.6,59.96829883862001,
29,TTF,TTF_29_bett_070319.wav,,,1,rating_d_final.csv,d,final,,,,,0,0,0,0,0,1,1,0,0,24,24,28,,,,,,1,0.488,102,001,2019_Mar_13_1331,test_run,3.0.6,59.96829883862001,
27,TTF,TTF_27_sant_070319.wav,,,1,rating_d_final.csv,d,final,,,,,0,0,0,0,0,1,1,0,0,25,25,26,,,,,,1,0.67,102,001,2019_Mar_13_1331,test_run,3.0.6,59.96829883862001,
13,TDF,TDF_13_ljud_070319.wav,,,1,rating_d_final.csv,d,final,,,,,0,0,0,0,0,1,1,0,0,26,26,12,,,,,,6,0.453,102,001,2019_Mar_13_1331,test_run,3.0.6,59.96829883862001,
14,TDF,TDF_14_mod_070319.wav,,,1,rating_d_final.csv,d,final,,,,,0,0,0,0,0,1,1,0,0,27,27,13,,,,,,6,0.938,102,001,2019_Mar_13_1331,test_run,3.0.6,59.96829883862001,
4,TDF,TDF_4_rod_070319.wav,,,1,rating_d_final.csv,d,final,,,,,0,0,0,0,0,1,1,0,0,28,28,3,,,,,,7,0.436,102,001,2019_Mar_13_1331,test_run,3.0.6,59.96829883862001,
19,TTF,TTF_19_skoet_070319.wav,,,1,rating_d_final.csv,d,final,,,,,0,0,0,0,0,1,1,0,0,29,29,18,,,,,,1,0.622,102,001,2019_Mar_13_1331,test_run,3.0.6,59.96829883862001,
10,TDF,TDF_10_brod_070319.wav,,,1,rating_d_final.csv,d,final,,,,,0,0,0,0,0,1,1,0,0,30,30,9,,,,,,7,0.521,102,001,2019_Mar_13_1331,test_run,3.0.6,59.96829883862001,
17,TTF,TTF_17_sket_070319.wav,,,1,rating_d_final.csv,d,final,,,,,0,0,0,0,0,1,1,0,0,31,31,16,,,,,,1,0.521,102,001,2019_Mar_13_1331,test_run,3.0.6,59.96829883862001,
1,TDI,TDI_1_dag_150219.wav,,,2,rating_d_initial.csv,d,initial,,,,,0,1,1,1,0,0,0,0,0,0,0,0,,,,,,7,1.487,102,001,2019_Mar_13_1331,test_run,3.0.6,59.96829883862001,
10,TDI,TDI_10_ditt_150219.wav,,,2,rating_d_initial.csv,d,initial,,,,,0,1,1,1,0,0,0,0,0,1,1,9,,,,,,7,0.537,102,001,2019_Mar_13_1331,test_run,3.0.6,59.96829883862001,
20,TTI,TTI_20_tur_150219.wav,,,2,rating_d_initial.csv,d,initial,,,,,0,1,1,1,0,0,0,0,0,2,2,19,,,,,,1,0.538,102,001,2019_Mar_13_1331,test_run,3.0.6,59.96829883862001,
2,TDI,TDI_2_dagg_150219.wav,,,2,rating_d_initial.csv,d,initial,,,,,0,1,1,1,0,0,0,0,0,3,3,1,,,,,,7,0.837,102,001,2019_Mar_13_1331,test_run,3.0.6,59.96829883862001,
7,TDI,TDI_7_den_150219.wav,,,2,rating_d_initial.csv,d,initial,,,,,0,1,1,1,0,0,0,0,0,4,4,6,,,,,,7,0.637,102,001,2019_Mar_13_1331,test_run,3.0.6,59.96829883862001,
12,TDI,TDI_12_doa_150219.wav,,,2,rating_d_initial.csv,d,initial,,,,,0,1,1,1,0,0,0,0,0,5,5,11,,,,,,7,0.52,102,001,2019_Mar_13_1331,test_run,3.0.6,59.96829883862001,
18,TTI,TTI_18_tum_150219.wav,,,2,rating_d_initial.csv,d,initial,,,,,0,1,1,1,0,0,0,0,0,6,6,17,,,,,,2,0.937,102,001,2019_Mar_13_1331,test_run,3.0.6,59.96829883862001,
23,TTI,TTI_23_toa_150219.wav,,,2,rating_d_initial.csv,d,initial,,,,,0,1,1,1,0,0,0,0,0,7,7,22,,,,,,1,0.67,102,001,2019_Mar_13_1331,test_run,3.0.6,59.96829883862001,
6,TDI,TDI_6_deg_150219.wav,,,2,rating_d_initial.csv,d,initial,,,,,0,1,1,1,0,0,0,0,0,8,8,5,,,,,,7,1.321,102,001,2019_Mar_13_1331,test_run,3.0.6,59.96829883862001,
11,TDI,TDI_11_dipp_150219.wav,,,2,rating_d_initial.csv,d,initial,,,,,0,1,1,1,0,0,0,0,0,9,9,10,,,,,,7,0.669,102,001,2019_Mar_13_1331,test_run,3.0.6,59.96829883862001,
15,TTI,TTI_15_tom_150219.wav,,,2,rating_d_initial.csv,d,initial,,,,,0,1,1,1,0,0,0,0,0,10,10,14,,,,,,1,0.554,102,001,2019_Mar_13_1331,test_run,3.0.6,59.96829883862001,
13,TDI,TDI_13_dog_150219.wav,,,2,rating_d_initial.csv,d,initial,,,,,0,1,1,1,0,0,0,0,0,11,11,12,,,,,,7,0.471,102,001,2019_Mar_13_1331,test_run,3.0.6,59.96829883862001,
14,TDI,TDI_14_dok_150219.wav,,,2,rating_d_initial.csv,d,initial,,,,,0,1,1,1,0,0,0,0,0,12,12,13,,,,,,7,0.82,102,001,2019_Mar_13_1331,test_run,3.0.6,59.96829883862001,
9,TDI,TDI_9_dill_150219.wav,,,2,rating_d_initial.csv,d,initial,,,,,0,1,1,1,0,0,0,0,0,13,13,8,,,,,,7,0.554,102,001,2019_Mar_13_1331,test_run,3.0.6,59.96829883862001,
5,TDI,TDI_5_dass_150219.wav,,,2,rating_d_initial.csv,d,initial,,,,,0,1,1,1,0,0,0,0,0,14,14,4,,,,,,7,0.871,102,001,2019_Mar_13_1331,test_run,3.0.6,59.96829883862001,
16,TTI,TTI_16_ton_150219.wav,,,2,rating_d_initial.csv,d,initial,,,,,0,1,1,1,0,0,0,0,0,15,15,15,,,,,,1,0.504,102,001,2019_Mar_13_1331,test_run,3.0.6,59.96829883862001,
21,TTI,TTI_21_tugg_150219.wav,,,2,rating_d_initial.csv,d,initial,,,,,0,1,1,1,0,0,0,0,0,16,16,20,,,,,,1,0.619,102,001,2019_Mar_13_1331,test_run,3.0.6,59.96829883862001,
4,TDI,TDI_4_dam_150219.wav,,,2,rating_d_initial.csv,d,initial,,,,,0,1,1,1,0,0,0,0,0,17,17,3,,,,,,7,0.555,102,001,2019_Mar_13_1331,test_run,3.0.6,59.96829883862001,
19,TTI,TTI_19_tun_150219.wav,,,2,rating_d_initial.csv,d,initial,,,,,0,1,1,1,0,0,0,0,0,18,18,18,,,,,,1,0.587,102,001,2019_Mar_13_1331,test_run,3.0.6,59.96829883862001,
25,TTI,TTI_25_taar_150219.wav,,,2,rating_d_initial.csv,d,initial,,,,,0,1,1,1,0,0,0,0,0,19,19,24,,,,,,7,0.537,102,001,2019_Mar_13_1331,test_run,3.0.6,59.96829883862001,
22,TTI,TTI_22_ty_150219.wav,,,2,rating_d_initial.csv,d,initial,,,,,0,1,1,1,0,0,0,0,0,20,20,21,,,,,,6,0.571,102,001,2019_Mar_13_1331,test_run,3.0.6,59.96829883862001,
8,TDI,TDI_8_dia_150219.wav,,,2,rating_d_initial.csv,d,initial,,,,,0,1,1,1,0,0,0,0,0,21,21,7,,,,,,7,0.504,102,001,2019_Mar_13_1331,test_run,3.0.6,59.96829883862001,
26,TTI,TTI_26_toe_150219.wav,,,2,rating_d_initial.csv,d,initial,,,,,0,1,1,1,0,0,0,0,0,22,22,25,,,,,,6,0.504,102,001,2019_Mar_13_1331,test_run,3.0.6,59.96829883862001,
27,TTI,TTI_27_toem_150219.wav,,,2,rating_d_initial.csv,d,initial,,,,,0,1,1,1,0,0,0,0,0,23,23,26,,,,,,1,0.537,102,001,2019_Mar_13_1331,test_run,3.0.6,59.96829883862001,
24,TTI,TTI_24_taack_150219.wav,,,2,rating_d_initial.csv,d,initial,,,,,0,1,1,1,0,0,0,0,0,24,24,23,,,,,,1,0.47,102,001,2019_Mar_13_1331,test_run,3.0.6,59.96829883862001,
3,TDI,TDI_3_dal_150219.wav,,,2,rating_d_initial.csv,d,initial,,,,,0,1,1,1,0,0,0,0,0,25,25,2,,,,,,7,0.886,102,001,2019_Mar_13_1331,test_run,3.0.6,59.96829883862001,
17,TTI,TTI_17_topp_150219.wav,,,2,rating_d_initial.csv,d,initial,,,,,0,1,1,1,0,0,0,0,0,26,26,16,,,,,,1,0.704,102,001,2019_Mar_13_1331,test_run,3.0.6,59.96829883862001,
14,TTI,TTI_14_tok_150219.wav,,,2,rating_t_initial.csv,t,initial,,,,,0,1,1,1,0,1,1,1,0,0,0,13,,,,,,7,1.904,102,001,2019_Mar_13_1331,test_run,3.0.6,59.96829883862001,
11,TTI,TTI_11_tipp_150219.wav,,,2,rating_t_initial.csv,t,initial,,,,,0,1,1,1,0,1,1,1,0,1,1,10,,,,,,7,0.521,102,001,2019_Mar_13_1331,test_run,3.0.6,59.96829883862001,
2,TTI,TTI_2_tagg_150219.wav,,,2,rating_t_initial.csv,t,initial,,,,,0,1,1,1,0,1,1,1,0,2,2,1,,,,,,6,1.087,102,001,2019_Mar_13_1331,test_run,3.0.6,59.96829883862001,
5,TTI,TTI_5_tass_150219.wav,,,2,rating_t_initial.csv,t,initial,,,,,0,1,1,1,0,1,1,1,0,3,3,4,,,,,,1,0.621,102,001,2019_Mar_13_1331,test_run,3.0.6,59.96829883862001,
8,TTI,TTI_8_tia_150219.wav,,,2,rating_t_initial.csv,t,initial,,,,,0,1,1,1,0,1,1,1,0,4,4,7,,,,,,7,0.622,102,001,2019_Mar_13_1331,test_run,3.0.6,59.96829883862001,
15,TDI,TDI_15_dom_150219.wav,,,2,rating_t_initial.csv,t,initial,,,,,0,1,1,1,0,1,1,1,0,5,5,14,,,,,,1,0.586,102,001,2019_Mar_13_1331,test_run,3.0.6,59.96829883862001,
1,TTI,TTI_1_tag_150219.wav,,,2,rating_t_initial.csv,t,initial,,,,,0,1,1,1,0,1,1,1,0,6,6,0,,,,,,6,0.671,102,001,2019_Mar_13_1331,test_run,3.0.6,59.96829883862001,
13,TTI,TTI_13_tog_150219.wav,,,2,rating_t_initial.csv,t,initial,,,,,0,1,1,1,0,1,1,1,0,7,7,12,,,,,,1,1.403,102,001,2019_Mar_13_1331,test_run,3.0.6,59.96829883862001,
3,TTI,TTI_3_tal_150219.wav,,,2,rating_t_initial.csv,t,initial,,,,,0,1,1,1,0,1,1,1,0,8,8,2,,,,,,1,3.438,102,001,2019_Mar_13_1331,test_run,3.0.6,59.96829883862001,
22,TDI,TDI_22_dy_150219.wav,,,2,rating_t_initial.csv,t,initial,,,,,0,1,1,1,0,1,1,1,0,9,9,21,,,,,,1,0.954,102,001,2019_Mar_13_1331,test_run,3.0.6,59.96829883862001,
12,TTI,TTI_12_toa_150219.wav,,,2,rating_t_initial.csv,t,initial,,,,,0,1,1,1,0,1,1,1,0,10,10,11,,,,,,6,0.821,102,001,2019_Mar_13_1331,test_run,3.0.6,59.96829883862001,
7,TTI,TTI_7_tenn_150219.wav,,,2,rating_t_initial.csv,t,initial,,,,,0,1,1,1,0,1,1,1,0,11,11,6,,,,,,7,0.587,102,001,2019_Mar_13_1331,test_run,3.0.6,59.96829883862001,
21,TDI,TDI_21_dugg_150219.wav,,,2,rating_t_initial.csv,t,initial,,,,,0,1,1,1,0,1,1,1,0,12,12,20,,,,,,1,0.704,102,001,2019_Mar_13_1331,test_run,3.0.6,59.96829883862001,
27,TDI,TDI_27_doem_edit_150219.wav,,,2,rating_t_initial.csv,t,initial,,,,,0,1,1,1,0,1,1,1,0,13,13,26,,,,,,1,1.054,102,001,2019_Mar_13_1331,test_run,3.0.6,59.96829883862001,
23,TDI,TDI_23_doa_150219.wav,,,2,rating_t_initial.csv,t,initial,,,,,0,1,1,1,0,1,1,1,0,14,14,22,,,,,,1,1.871,102,001,2019_Mar_13_1331,test_run,3.0.6,59.96829883862001,
26,TDI,TDI_26_doe_150219.wav,,,2,rating_t_initial.csv,t,initial,,,,,0,1,1,1,0,1,1,1,0,15,15,25,,,,,,1,0.653,102,001,2019_Mar_13_1331,test_run,3.0.6,59.96829883862001,
10,TTI,TTI_10_titt_150219.wav,,,2,rating_t_initial.csv,t,initial,,,,,0,1,1,1,0,1,1,1,0,16,16,9,,,,,,1,0.937,102,001,2019_Mar_13_1331,test_run,3.0.6,59.96829883862001,
20,TDI,TDI_20_dur_150219.wav,,,2,rating_t_initial.csv,t,initial,,,,,0,1,1,1,0,1,1,1,0,17,17,19,,,,,,1,0.704,102,001,2019_Mar_13_1331,test_run,3.0.6,59.96829883862001,
9,TTI,TTI_9_till_150219.wav,,,2,rating_t_initial.csv,t,initial,,,,,0,1,1,1,0,1,1,1,0,18,18,8,,,,,,6,0.704,102,001,2019_Mar_13_1331,test_run,3.0.6,59.96829883862001,
4,TTI,TTI_4_tam_150219.wav,,,2,rating_t_initial.csv,t,initial,,,,,0,1,1,1,0,1,1,1,0,19,19,3,,,,,,5,1.187,102,001,2019_Mar_13_1331,test_run,3.0.6,59.96829883862001,
19,TDI,TDI_19_dun_150219.wav,,,2,rating_t_initial.csv,t,initial,,,,,0,1,1,1,0,1,1,1,0,20,20,18,,,,,,1,0.654,102,001,2019_Mar_13_1331,test_run,3.0.6,59.96829883862001,
24,TDI,TDI_24_daack_150219.wav,,,2,rating_t_initial.csv,t,initial,,,,,0,1,1,1,0,1,1,1,0,21,21,23,,,,,,1,0.737,102,001,2019_Mar_13_1331,test_run,3.0.6,59.96829883862001,
16,TDI,TDI_16_don_150219.wav,,,2,rating_t_initial.csv,t,initial,,,,,0,1,1,1,0,1,1,1,0,22,22,15,,,,,,1,0.62,102,001,2019_Mar_13_1331,test_run,3.0.6,59.96829883862001,
18,TDI,TDI_18_dum_150219.wav,,,2,rating_t_initial.csv,t,initial,,,,,0,1,1,1,0,1,1,1,0,23,23,17,,,,,,1,0.504,102,001,2019_Mar_13_1331,test_run,3.0.6,59.96829883862001,
17,TDI,TDI_17_dopp_150219.wav,,,2,rating_t_initial.csv,t,initial,,,,,0,1,1,1,0,1,1,1,0,24,24,16,,,,,,1,0.688,102,001,2019_Mar_13_1331,test_run,3.0.6,59.96829883862001,
25,TDI,TDI_25_daar_150219.wav,,,2,rating_t_initial.csv,t,initial,,,,,0,1,1,1,0,1,1,1,0,25,25,24,,,,,,1,0.753,102,001,2019_Mar_13_1331,test_run,3.0.6,59.96829883862001,
6,TTI,TTI_6_teg_150219.wav,,,2,rating_t_initial.csv,t,initial,,,,,0,1,1,1,0,1,1,1,0,26,26,5,,,,,,7,0.688,102,001,2019_Mar_13_1331,test_run,3.0.6,59.96829883862001,
