item,item_cond,sound,corr_ans,group,block_id,listname,rating_for,position,trials.thisRepN,trials.thisTrialN,trials.thisN,trials.thisIndex,run_block_type.thisRepN,run_block_type.thisTrialN,run_block_type.thisN,run_block_type.thisIndex,routine.thisRepN,routine.thisTrialN,routine.thisN,routine.thisIndex,rating_trials.thisRepN,rating_trials.thisTrialN,rating_trials.thisN,rating_trials.thisIndex,key_resp_1.keys,key_resp_1.rt,key_resp_2.keys,key_resp_2.corr,key_resp_2.rt,rating_1.response,rating_1.rt,participant,session,date,expName,psychopyVersion,frameRate,
,,,,,,,,,,,,,,,,,,,,,,,,,s,14.33650557999863,,,,,,103,001,2019_Mar_13_1503,test_run,3.0.6,60.009945808207036,
167,ENW,ENW_77_somfera_150219.wav,n,t,,,,,0,0,0,166,,,,,,,,,,,,,,,n,1,0.23587621999831754,,,103,001,2019_Mar_13_1503,test_run,3.0.6,60.009945808207036,
20,ETW,ETW_20_loppmarknad_070319.wav,j,t,,,,,0,1,1,19,,,,,,,,,,,,,,,j,1,2.800264141998923,,,103,001,2019_Mar_13_1503,test_run,3.0.6,60.009945808207036,
173,ENW,ENW_83_fyrskovar_150219.wav,n,t,,,,,0,2,2,172,,,,,,,,,,,,,,,n,1,0.18561537499772385,,,103,001,2019_Mar_13_1503,test_run,3.0.6,60.009945808207036,
107,ENW,ENW_17_kopynnor_150219.wav,n,t,,,,,0,3,3,106,,,,,,,,,,,,,,,n,1,0.5355797519987391,,,103,001,2019_Mar_13_1503,test_run,3.0.6,60.009945808207036,
114,ENW,ENW_24_samjoner_150219.wav,n,t,,,,,0,4,4,113,,,,,,,,,,,,,,,n,1,0.23643847399944207,,,103,001,2019_Mar_13_1503,test_run,3.0.6,60.009945808207036,
26,ETW,ETW_26_olympiad_070319.wav,j,t,,,,,0,5,5,25,,,,,,,,,,,,,,,j,1,1.5169655559984676,,,103,001,2019_Mar_13_1503,test_run,3.0.6,60.009945808207036,
68,EFW,EFW_38_foerefoell_070319.wav,j,t,,,,,0,6,6,67,,,,,,,,,,,,,,,j,1,1.8190282079995086,,,103,001,2019_Mar_13_1503,test_run,3.0.6,60.009945808207036,
30,ETW,ETW_30_oeverlevnad_070319.wav,j,t,,,,,0,7,7,29,,,,,,,,,,,,,,,j,1,0.41961884400006966,,,103,001,2019_Mar_13_1503,test_run,3.0.6,60.009945808207036,
129,ENW,ENW_39_ljusonar_150219.wav,n,t,,,,,0,8,8,128,,,,,,,,,,,,,,,n,1,0.36921782399804215,,,103,001,2019_Mar_13_1503,test_run,3.0.6,60.009945808207036,
27,ETW,ETW_27_medellivslaangd_070319.wav,j,t,,,,,0,9,9,26,,,,,,,,,,,,,,,j,1,0.4358171620006033,,,103,001,2019_Mar_13_1503,test_run,3.0.6,60.009945808207036,
160,ENW,ENW_70_roklarner_150219.wav,n,t,,,,,0,10,10,159,,,,,,,,,,,,,,,n,1,0.633817996000289,,,103,001,2019_Mar_13_1503,test_run,3.0.6,60.009945808207036,
147,ENW,ENW_57_flovanning_150219.wav,n,t,,,,,0,11,11,146,,,,,,,,,,,,,,,n,1,1.1190262359996268,,,103,001,2019_Mar_13_1503,test_run,3.0.6,60.009945808207036,
1,ETW,ETW_1_oskuld_070319.wav,j,t,,,,,0,12,12,0,,,,,,,,,,,,,,,j,1,0.5363008579988673,,,103,001,2019_Mar_13_1503,test_run,3.0.6,60.009945808207036,
80,EFW,EFW_50_snaalla_070319.wav,j,t,,,,,0,13,13,79,,,,,,,,,,,,,,,j,1,0.7864637999991828,,,103,001,2019_Mar_13_1503,test_run,3.0.6,60.009945808207036,
59,EFW,EFW_29_formen_070319.wav,j,t,,,,,0,14,14,58,,,,,,,,,,,,,,,j,1,0.6691287360008573,,,103,001,2019_Mar_13_1503,test_run,3.0.6,60.009945808207036,
115,ENW,ENW_25_affierar_150219.wav,n,t,,,,,0,15,15,114,,,,,,,,,,,,,,,n,1,1.7503650219987321,,,103,001,2019_Mar_13_1503,test_run,3.0.6,60.009945808207036,
11,ETW,ETW_11_period_070319.wav,j,t,,,,,0,16,16,10,,,,,,,,,,,,,,,j,1,0.7028881959995488,,,103,001,2019_Mar_13_1503,test_run,3.0.6,60.009945808207036,
143,ENW,ENW_53_svarmvisso_150219.wav,n,t,,,,,0,17,17,142,,,,,,,,,,,,,,,n,1,0.8193223210000724,,,103,001,2019_Mar_13_1503,test_run,3.0.6,60.009945808207036,
64,EFW,EFW_34_sommar_070319.wav,j,t,,,,,0,18,18,63,,,,,,,,,,,,,,,j,1,0.7520659549991251,,,103,001,2019_Mar_13_1503,test_run,3.0.6,60.009945808207036,
85,EFW,EFW_55_oroar_070319.wav,j,t,,,,,0,19,19,84,,,,,,,,,,,,,,,j,1,0.3528734390019963,,,103,001,2019_Mar_13_1503,test_run,3.0.6,60.009945808207036,
54,EFW,EFW_24_foersvinner_070319.wav,j,t,,,,,0,20,20,53,,,,,,,,,,,,,,,j,1,0.6022640410010354,,,103,001,2019_Mar_13_1503,test_run,3.0.6,60.009945808207036,
37,EFW,EFW_7_sociala_070319.wav,j,t,,,,,0,21,21,36,,,,,,,,,,,,,,,j,1,0.3525622660017689,,,103,001,2019_Mar_13_1503,test_run,3.0.6,60.009945808207036,
41,EFW,EFW_11_maanniskor_070319.wav,j,t,,,,,0,22,22,40,,,,,,,,,,,,,,,j,1,0.5197291000004043,,,103,001,2019_Mar_13_1503,test_run,3.0.6,60.009945808207036,
125,ENW,ENW_35_nymaljen_150219.wav,n,t,,,,,0,23,23,124,,,,,,,,,,,,,,,j,0,0.5358381070000178,,,103,001,2019_Mar_13_1503,test_run,3.0.6,60.009945808207036,
82,EFW,EFW_52_framhoalla_070319.wav,j,t,,,,,0,24,24,81,,,,,,,,,,,,,,,j,1,0.5198943819996202,,,103,001,2019_Mar_13_1503,test_run,3.0.6,60.009945808207036,
112,ENW,ENW_22_fjäserna_150219.wav,n,t,,,,,0,25,25,111,,,,,,,,,,,,,,,n,1,0.5860494080006902,,,103,001,2019_Mar_13_1503,test_run,3.0.6,60.009945808207036,
137,ENW,ENW_47_oafläppen_150219.wav,n,t,,,,,0,26,26,136,,,,,,,,,,,,,,,n,1,0.8189215290003631,,,103,001,2019_Mar_13_1503,test_run,3.0.6,60.009945808207036,
171,ENW,ENW_81_persifera_150219.wav,n,t,,,,,0,27,27,170,,,,,,,,,,,,,,,j,0,2.602491953999561,,,103,001,2019_Mar_13_1503,test_run,3.0.6,60.009945808207036,
6,ETW,ETW_6_vemod_070319.wav,j,t,,,,,0,28,28,5,,,,,,,,,,,,,,,j,1,1.4025151669993647,,,103,001,2019_Mar_13_1503,test_run,3.0.6,60.009945808207036,
162,ENW,ENW_72_urskecken_150219.wav,n,t,,,,,0,29,29,161,,,,,,,,,,,,,,,n,1,1.1521964429994114,,,103,001,2019_Mar_13_1503,test_run,3.0.6,60.009945808207036,
96,ENW,ENW_6_vilfroaser_150219.wav,n,t,,,,,0,30,30,95,,,,,,,,,,,,,,,n,1,3.2027302069982397,,,103,001,2019_Mar_13_1503,test_run,3.0.6,60.009945808207036,
151,ENW,ENW_61_myckskina_150219.wav,n,t,,,,,0,31,31,150,,,,,,,,,,,,,,,n,1,0.8032462959999975,,,103,001,2019_Mar_13_1503,test_run,3.0.6,60.009945808207036,
176,ENW,ENW_86_heloppsin_150219.wav,n,t,,,,,0,32,32,175,,,,,,,,,,,,,,,n,1,0.6693705129982845,,,103,001,2019_Mar_13_1503,test_run,3.0.6,60.009945808207036,
18,ETW,ETW_18_husfasad_070319.wav,j,t,,,,,0,33,33,17,,,,,,,,,,,,,,,j,1,0.7359411409997847,,,103,001,2019_Mar_13_1503,test_run,3.0.6,60.009945808207036,
57,EFW,EFW_27_analysera_070319.wav,j,t,,,,,0,34,34,56,,,,,,,,,,,,,,,j,1,0.7029752259986708,,,103,001,2019_Mar_13_1503,test_run,3.0.6,60.009945808207036,
116,ENW,ENW_26_anufera_150219.wav,n,t,,,,,0,35,35,115,,,,,,,,,,,,,,,n,1,0.5691449719997763,,,103,001,2019_Mar_13_1503,test_run,3.0.6,60.009945808207036,
142,ENW,ENW_52_filofyll_150219.wav,n,t,,,,,0,36,36,141,,,,,,,,,,,,,,,n,1,0.5186592620011652,,,103,001,2019_Mar_13_1503,test_run,3.0.6,60.009945808207036,
33,EFW,EFW_3_familjen_070319.wav,j,t,,,,,0,37,37,32,,,,,,,,,,,,,,,j,1,0.5525963790023525,,,103,001,2019_Mar_13_1503,test_run,3.0.6,60.009945808207036,
105,ENW,ENW_15_forfeckla_150219.wav,n,t,,,,,0,38,38,104,,,,,,,,,,,,,,,n,1,0.6504990510002244,,,103,001,2019_Mar_13_1503,test_run,3.0.6,60.009945808207036,
110,ENW,ENW_20_invonen_150219.wav,n,t,,,,,0,39,39,109,,,,,,,,,,,,,,,n,1,0.7531160229991656,,,103,001,2019_Mar_13_1503,test_run,3.0.6,60.009945808207036,
81,EFW,EFW_51_seminarier_070319.wav,j,t,,,,,0,40,40,80,,,,,,,,,,,,,,,j,1,0.48579061499913223,,,103,001,2019_Mar_13_1503,test_run,3.0.6,60.009945808207036,
84,EFW,EFW_54_romaner_070319.wav,j,t,,,,,0,41,41,83,,,,,,,,,,,,,,,j,1,0.43624921000082395,,,103,001,2019_Mar_13_1503,test_run,3.0.6,60.009945808207036,
124,ENW,ENW_34_jomera_150219.wav,n,t,,,,,0,42,42,123,,,,,,,,,,,,,,,n,1,0.5862043330016604,,,103,001,2019_Mar_13_1503,test_run,3.0.6,60.009945808207036,
86,EFW,EFW_56_mormor_070319.wav,j,t,,,,,0,43,43,85,,,,,,,,,,,,,,,j,1,0.7361783890009974,,,103,001,2019_Mar_13_1503,test_run,3.0.6,60.009945808207036,
13,ETW,ETW_13_oevervoald_070319.wav,j,t,,,,,0,44,44,12,,,,,,,,,,,,,,,j,1,0.6692821260003257,,,103,001,2019_Mar_13_1503,test_run,3.0.6,60.009945808207036,
179,ENW,ENW_89_mikenspoan_150219.wav,n,t,,,,,0,45,45,178,,,,,,,,,,,,,,,n,1,0.4837265419992036,,,103,001,2019_Mar_13_1503,test_run,3.0.6,60.009945808207036,
120,ENW,ENW_30_sojera_150219.wav,n,t,,,,,0,46,46,119,,,,,,,,,,,,,,,n,1,0.9193561150023015,,,103,001,2019_Mar_13_1503,test_run,3.0.6,60.009945808207036,
102,ENW,ENW_12_snälmola_150219.wav,n,t,,,,,0,47,47,101,,,,,,,,,,,,,,,n,1,0.6858586859998468,,,103,001,2019_Mar_13_1503,test_run,3.0.6,60.009945808207036,
83,EFW,EFW_53_sovrum_070319.wav,j,t,,,,,0,48,48,82,,,,,,,,,,,,,,,j,1,0.5033404610003345,,,103,001,2019_Mar_13_1503,test_run,3.0.6,60.009945808207036,
106,ENW,ENW_16_rolinkar_150219.wav,n,t,,,,,0,49,49,105,,,,,,,,,,,,,,,n,1,1.1691983279997658,,,103,001,2019_Mar_13_1503,test_run,3.0.6,60.009945808207036,
2,ETW,ETW_2_skillnad_070319.wav,j,t,,,,,0,50,50,1,,,,,,,,,,,,,,,j,1,0.6690807310005766,,,103,001,2019_Mar_13_1503,test_run,3.0.6,60.009945808207036,
66,EFW,EFW_36_haarifroan_070319.wav,j,t,,,,,0,51,51,65,,,,,,,,,,,,,,,j,1,0.7025046950002434,,,103,001,2019_Mar_13_1503,test_run,3.0.6,60.009945808207036,
89,EFW,EFW_59_filosofin_070319.wav,j,t,,,,,0,52,52,88,,,,,,,,,,,,,,,j,1,1.4030821500018646,,,103,001,2019_Mar_13_1503,test_run,3.0.6,60.009945808207036,
98,ENW,ENW_8_haväras_150219.wav,n,t,,,,,0,53,53,97,,,,,,,,,,,,,,,j,0,0.6519326790003106,,,103,001,2019_Mar_13_1503,test_run,3.0.6,60.009945808207036,
67,EFW,EFW_37_foervisso_070319.wav,j,t,,,,,0,54,54,66,,,,,,,,,,,,,,,j,1,0.6533368910022546,,,103,001,2019_Mar_13_1503,test_run,3.0.6,60.009945808207036,
130,ENW,ENW_40_knipackar_150219.wav,n,t,,,,,0,55,55,129,,,,,,,,,,,,,,,n,1,0.8690275599983579,,,103,001,2019_Mar_13_1503,test_run,3.0.6,60.009945808207036,
24,ETW,ETW_24_oeverfloed_070319.wav,j,t,,,,,0,56,56,23,,,,,,,,,,,,,,,j,1,0.4029981379972014,,,103,001,2019_Mar_13_1503,test_run,3.0.6,60.009945808207036,
121,ENW,ENW_31_romation_150219.wav,n,t,,,,,0,57,57,120,,,,,,,,,,,,,,,n,1,0.6027891269986867,,,103,001,2019_Mar_13_1503,test_run,3.0.6,60.009945808207036,
149,ENW,ENW_59_kyrkmänning_150219.wav,n,t,,,,,0,58,58,148,,,,,,,,,,,,,,,n,1,0.768541618999734,,,103,001,2019_Mar_13_1503,test_run,3.0.6,60.009945808207036,
161,ENW,ENW_71_forskäckla_150219.wav,n,t,,,,,0,59,59,160,,,,,,,,,,,,,,,n,1,0.8693957110008341,,,103,001,2019_Mar_13_1503,test_run,3.0.6,60.009945808207036,
9,ETW,ETW_9_haarmed_070319.wav,j,t,,,,,0,60,60,8,,,,,,,,,,,,,,,j,1,0.46880236899960437,,,103,001,2019_Mar_13_1503,test_run,3.0.6,60.009945808207036,
140,ENW,ENW_50_omsänare_150219.wav,n,t,,,,,0,61,61,139,,,,,,,,,,,,,,,n,1,1.2197893749980722,,,103,001,2019_Mar_13_1503,test_run,3.0.6,60.009945808207036,
58,EFW,EFW_28_olja_070319.wav,j,t,,,,,0,62,62,57,,,,,,,,,,,,,,,j,1,0.6366845599986846,,,103,001,2019_Mar_13_1503,test_run,3.0.6,60.009945808207036,
17,ETW,ETW_17_hemmavid_070319.wav,j,t,,,,,0,63,63,16,,,,,,,,,,,,,,,j,1,0.6025742359997821,,,103,001,2019_Mar_13_1503,test_run,3.0.6,60.009945808207036,
73,EFW,EFW_43_halvoar_070319.wav,j,t,,,,,0,64,64,72,,,,,,,,,,,,,,,j,1,0.40243515300244326,,,103,001,2019_Mar_13_1503,test_run,3.0.6,60.009945808207036,
53,EFW,EFW_23_aamne_070319.wav,j,t,,,,,0,65,65,52,,,,,,,,,,,,,,,j,1,0.4691431969986297,,,103,001,2019_Mar_13_1503,test_run,3.0.6,60.009945808207036,
155,ENW,ENW_65_hamfylla_150219.wav,n,t,,,,,0,66,66,154,,,,,,,,,,,,,,,n,1,0.4524573380003858,,,103,001,2019_Mar_13_1503,test_run,3.0.6,60.009945808207036,
36,EFW,EFW_6_massa_070319.wav,j,t,,,,,0,67,67,35,,,,,,,,,,,,,,,j,1,0.5356679350006743,,,103,001,2019_Mar_13_1503,test_run,3.0.6,60.009945808207036,
19,ETW,ETW_19_saallskapshund_070319.wav,j,t,,,,,0,68,68,18,,,,,,,,,,,,,,,j,1,0.583865982000134,,,103,001,2019_Mar_13_1503,test_run,3.0.6,60.009945808207036,
22,ETW,ETW_22_sinnesfrid_070319.wav,j,t,,,,,0,69,69,21,,,,,,,,,,,,,,,j,1,0.3533202210019226,,,103,001,2019_Mar_13_1503,test_run,3.0.6,60.009945808207036,
8,ETW,ETW_8_samfund_070319.wav,j,t,,,,,0,70,70,7,,,,,,,,,,,,,,,j,1,0.40256114899966633,,,103,001,2019_Mar_13_1503,test_run,3.0.6,60.009945808207036,
152,ENW,ENW_62_ljullepilja_150219.wav,n,t,,,,,0,71,71,151,,,,,,,,,,,,,,,n,1,0.3855932929982373,,,103,001,2019_Mar_13_1503,test_run,3.0.6,60.009945808207036,
42,EFW,EFW_12_foeremoal_070319.wav,j,t,,,,,0,72,72,41,,,,,,,,,,,,,,,j,1,0.40289164100249764,,,103,001,2019_Mar_13_1503,test_run,3.0.6,60.009945808207036,
48,EFW,EFW_18_nummer_070319.wav,j,t,,,,,0,73,73,47,,,,,,,,,,,,,,,j,1,0.4358261580018734,,,103,001,2019_Mar_13_1503,test_run,3.0.6,60.009945808207036,
132,ENW,ENW_42_hamsforing_150219.wav,n,t,,,,,0,74,74,131,,,,,,,,,,,,,,,n,1,0.40227988100014045,,,103,001,2019_Mar_13_1503,test_run,3.0.6,60.009945808207036,
100,ENW,ENW_10_skinnamer_150219.wav,n,t,,,,,0,75,75,99,,,,,,,,,,,,,,,n,1,0.37002039999788394,,,103,001,2019_Mar_13_1503,test_run,3.0.6,60.009945808207036,
76,EFW,EFW_46_foerhoer_070319.wav,j,t,,,,,0,76,76,75,,,,,,,,,,,,,,,j,1,0.48537994399885065,,,103,001,2019_Mar_13_1503,test_run,3.0.6,60.009945808207036,
165,ENW,ENW_75_foarskining_150219.wav,n,t,,,,,0,77,77,164,,,,,,,,,,,,,,,n,1,0.5531412320015079,,,103,001,2019_Mar_13_1503,test_run,3.0.6,60.009945808207036,
62,EFW,EFW_32_fyller_070319.wav,j,t,,,,,0,78,78,61,,,,,,,,,,,,,,,n,0,0.8689712110026448,,,103,001,2019_Mar_13_1503,test_run,3.0.6,60.009945808207036,
118,ENW,ENW_28_läkermask_150219.wav,n,t,,,,,0,79,79,117,,,,,,,,,,,,,,,n,1,0.5363170540003921,,,103,001,2019_Mar_13_1503,test_run,3.0.6,60.009945808207036,
119,ENW,ENW_29_uppskira_150219.wav,n,t,,,,,0,80,80,118,,,,,,,,,,,,,,,n,1,0.38608641399696353,,,103,001,2019_Mar_13_1503,test_run,3.0.6,60.009945808207036,
87,EFW,EFW_57_loenerna_070319.wav,j,t,,,,,0,81,81,86,,,,,,,,,,,,,,,n,0,0.9363248800000292,,,103,001,2019_Mar_13_1503,test_run,3.0.6,60.009945808207036,
4,ETW,ETW_4_livraadd_070319.wav,j,t,,,,,0,82,82,3,,,,,,,,,,,,,,,j,1,1.570170931998291,,,103,001,2019_Mar_13_1503,test_run,3.0.6,60.009945808207036,
40,EFW,EFW_10_laarare_070319.wav,j,t,,,,,0,83,83,39,,,,,,,,,,,,,,,j,1,0.4005169149968424,,,103,001,2019_Mar_13_1503,test_run,3.0.6,60.009945808207036,
148,ENW,ENW_58_malvossa_150219.wav,n,t,,,,,0,84,84,147,,,,,,,,,,,,,,,n,1,0.4026986950011633,,,103,001,2019_Mar_13_1503,test_run,3.0.6,60.009945808207036,
16,ETW,ETW_16_episod_070319.wav,j,t,,,,,0,85,85,15,,,,,,,,,,,,,,,j,1,0.35312916999828303,,,103,001,2019_Mar_13_1503,test_run,3.0.6,60.009945808207036,
141,ENW,ENW_51_skillare_150219.wav,n,t,,,,,0,86,86,140,,,,,,,,,,,,,,,n,1,0.4023478780000005,,,103,001,2019_Mar_13_1503,test_run,3.0.6,60.009945808207036,
157,ENW,ENW_67_oafreskar_150219.wav,n,t,,,,,0,87,87,156,,,,,,,,,,,,,,,n,1,0.952929180002684,,,103,001,2019_Mar_13_1503,test_run,3.0.6,60.009945808207036,
70,EFW,EFW_40_miljoner_070319.wav,j,t,,,,,0,88,88,69,,,,,,,,,,,,,,,j,1,1.0190650839977025,,,103,001,2019_Mar_13_1503,test_run,3.0.6,60.009945808207036,
29,ETW,ETW_29_oeverhuvud_070319.wav,j,t,,,,,0,89,89,28,,,,,,,,,,,,,,,j,1,0.2838543739999295,,,103,001,2019_Mar_13_1503,test_run,3.0.6,60.009945808207036,
158,ENW,ENW_68_presionar_150219.wav,n,t,,,,,0,90,90,157,,,,,,,,,,,,,,,j,0,0.502855359998648,,,103,001,2019_Mar_13_1503,test_run,3.0.6,60.009945808207036,
15,ETW,ETW_15_knivsudd_070319.wav,j,t,,,,,0,91,91,14,,,,,,,,,,,,,,,n,0,0.2857020180017571,,,103,001,2019_Mar_13_1503,test_run,3.0.6,60.009945808207036,
131,ENW,ENW_41_vessmaren_150219.wav,n,t,,,,,0,92,92,130,,,,,,,,,,,,,,,n,1,0.335756879998371,,,103,001,2019_Mar_13_1503,test_run,3.0.6,60.009945808207036,
172,ENW,ENW_82_värskappa_150219.wav,n,t,,,,,0,93,93,171,,,,,,,,,,,,,,,n,1,0.6693519599975843,,,103,001,2019_Mar_13_1503,test_run,3.0.6,60.009945808207036,
93,ENW,ENW_3_vissorens_150219.wav,n,t,,,,,0,94,94,92,,,,,,,,,,,,,,,n,1,0.3694953669983079,,,103,001,2019_Mar_13_1503,test_run,3.0.6,60.009945808207036,
49,EFW,EFW_19_roerelse_070319.wav,j,t,,,,,0,95,95,48,,,,,,,,,,,,,,,j,1,1.0360760310031765,,,103,001,2019_Mar_13_1503,test_run,3.0.6,60.009945808207036,
164,ENW,ENW_74_malsera_150219.wav,n,t,,,,,0,96,96,163,,,,,,,,,,,,,,,n,1,0.3690628660006041,,,103,001,2019_Mar_13_1503,test_run,3.0.6,60.009945808207036,
12,ETW,ETW_12_offerlund_070319.wav,j,t,,,,,0,97,97,11,,,,,,,,,,,,,,,n,0,0.3697050179980579,,,103,001,2019_Mar_13_1503,test_run,3.0.6,60.009945808207036,
34,EFW,EFW_4_foerminska_070319.wav,j,t,,,,,0,98,98,33,,,,,,,,,,,,,,,j,1,0.38573378900036914,,,103,001,2019_Mar_13_1503,test_run,3.0.6,60.009945808207036,
28,ETW,ETW_28_kommunalroad_070319.wav,j,t,,,,,0,99,99,27,,,,,,,,,,,,,,,j,1,1.436116075998143,,,103,001,2019_Mar_13_1503,test_run,3.0.6,60.009945808207036,
52,EFW,EFW_22_normala_070319.wav,j,t,,,,,0,100,100,51,,,,,,,,,,,,,,,j,1,0.4190507149978657,,,103,001,2019_Mar_13_1503,test_run,3.0.6,60.009945808207036,
31,EFW,EFW_1_allmaan_070319.wav,j,t,,,,,0,101,101,30,,,,,,,,,,,,,,,j,1,0.3529048390009848,,,103,001,2019_Mar_13_1503,test_run,3.0.6,60.009945808207036,
104,ENW,ENW_14_kärmenor_150219.wav,n,t,,,,,0,102,102,103,,,,,,,,,,,,,,,j,0,0.5690647049996187,,,103,001,2019_Mar_13_1503,test_run,3.0.6,60.009945808207036,
97,ENW,ENW_7_flasera_150219.wav,n,t,,,,,0,103,103,96,,,,,,,,,,,,,,,n,1,0.6525277920009103,,,103,001,2019_Mar_13_1503,test_run,3.0.6,60.009945808207036,
126,ENW,ENW_36_skymlosa_150219.wav,n,t,,,,,0,104,104,125,,,,,,,,,,,,,,,n,1,0.5508375950012123,,,103,001,2019_Mar_13_1503,test_run,3.0.6,60.009945808207036,
10,ETW,ETW_10_nomad_070319.wav,j,t,,,,,0,105,105,9,,,,,,,,,,,,,,,j,1,0.7523802260002412,,,103,001,2019_Mar_13_1503,test_run,3.0.6,60.009945808207036,
94,ENW,ENW_4_kyllfaren_150219.wav,n,t,,,,,0,106,106,93,,,,,,,,,,,,,,,n,1,1.9357446569993044,,,103,001,2019_Mar_13_1503,test_run,3.0.6,60.009945808207036,
170,ENW,ENW_80_tjarfera_150219.wav,n,t,,,,,0,107,107,169,,,,,,,,,,,,,,,n,1,0.40068218799933675,,,103,001,2019_Mar_13_1503,test_run,3.0.6,60.009945808207036,
175,ENW,ENW_85_forlinna_150219.wav,n,t,,,,,0,108,108,174,,,,,,,,,,,,,,,n,1,0.3522435420018155,,,103,001,2019_Mar_13_1503,test_run,3.0.6,60.009945808207036,
63,EFW,EFW_33_elva_070319.wav,j,t,,,,,0,109,109,62,,,,,,,,,,,,,,,j,1,0.3689921110017167,,,103,001,2019_Mar_13_1503,test_run,3.0.6,60.009945808207036,
103,ENW,ENW_13_forvaron_150219.wav,n,t,,,,,0,110,110,102,,,,,,,,,,,,,,,n,1,0.33548967900060234,,,103,001,2019_Mar_13_1503,test_run,3.0.6,60.009945808207036,
169,ENW,ENW_79_lyxmare_150219.wav,n,t,,,,,0,111,111,168,,,,,,,,,,,,,,,n,1,0.4836464879990672,,,103,001,2019_Mar_13_1503,test_run,3.0.6,60.009945808207036,
88,EFW,EFW_58_examen_070319.wav,j,t,,,,,0,112,112,87,,,,,,,,,,,,,,,j,1,0.40270243900158675,,,103,001,2019_Mar_13_1503,test_run,3.0.6,60.009945808207036,
128,ENW,ENW_38_roakanier_150219.wav,n,t,,,,,0,113,113,127,,,,,,,,,,,,,,,n,1,0.4529396079997241,,,103,001,2019_Mar_13_1503,test_run,3.0.6,60.009945808207036,
113,ENW,ENW_23_allsänning_150219.wav,n,t,,,,,0,114,114,112,,,,,,,,,,,,,,,n,1,0.35252322899759747,,,103,001,2019_Mar_13_1503,test_run,3.0.6,60.009945808207036,
71,EFW,EFW_41_infinna_070319.wav,j,t,,,,,0,115,115,70,,,,,,,,,,,,,,,j,1,0.3695630530019116,,,103,001,2019_Mar_13_1503,test_run,3.0.6,60.009945808207036,
108,ENW,ENW_18_moalursena_150219.wav,n,t,,,,,0,116,116,107,,,,,,,,,,,,,,,n,1,0.31929125399983604,,,103,001,2019_Mar_13_1503,test_run,3.0.6,60.009945808207036,
146,ENW,ENW_56_lysskarna_150219.wav,n,t,,,,,0,117,117,145,,,,,,,,,,,,,,,n,1,0.2857465779998165,,,103,001,2019_Mar_13_1503,test_run,3.0.6,60.009945808207036,
127,ENW,ENW_37_spallrivet_150219.wav,n,t,,,,,0,118,118,126,,,,,,,,,,,,,,,n,1,0.2855506490013795,,,103,001,2019_Mar_13_1503,test_run,3.0.6,60.009945808207036,
154,ENW,ENW_64_havskvare_150219.wav,n,t,,,,,0,119,119,153,,,,,,,,,,,,,,,n,1,0.5193829999989248,,,103,001,2019_Mar_13_1503,test_run,3.0.6,60.009945808207036,
90,EFW,EFW_60_insulin_070319.wav,j,t,,,,,0,120,120,89,,,,,,,,,,,,,,,j,1,0.30284494000079576,,,103,001,2019_Mar_13_1503,test_run,3.0.6,60.009945808207036,
79,EFW,EFW_49_vaasen_070319.wav,j,t,,,,,0,121,121,78,,,,,,,,,,,,,,,j,1,0.2695852249999007,,,103,001,2019_Mar_13_1503,test_run,3.0.6,60.009945808207036,
35,EFW,EFW_5_samhaalle_070319.wav,j,t,,,,,0,122,122,34,,,,,,,,,,,,,,,j,1,0.3023877790001279,,,103,001,2019_Mar_13_1503,test_run,3.0.6,60.009945808207036,
75,EFW,EFW_45_innanfoer_070319.wav,j,t,,,,,0,123,123,74,,,,,,,,,,,,,,,j,1,0.33592026400219765,,,103,001,2019_Mar_13_1503,test_run,3.0.6,60.009945808207036,
25,ETW,ETW_25_mikrosekund_070319.wav,j,t,,,,,0,124,124,24,,,,,,,,,,,,,,,j,1,0.28379308900184697,,,103,001,2019_Mar_13_1503,test_run,3.0.6,60.009945808207036,
7,ETW,ETW_7_hemland_070319.wav,j,t,,,,,0,125,125,6,,,,,,,,,,,,,,,j,1,0.335999481001636,,,103,001,2019_Mar_13_1503,test_run,3.0.6,60.009945808207036,
134,ENW,ENW_44_inlivna_150219.wav,n,t,,,,,0,126,126,133,,,,,,,,,,,,,,,n,1,0.3028557399993588,,,103,001,2019_Mar_13_1503,test_run,3.0.6,60.009945808207036,
135,ENW,ENW_45_fammoarens_150219.wav,n,t,,,,,0,127,127,134,,,,,,,,,,,,,,,n,1,0.3185457280014816,,,103,001,2019_Mar_13_1503,test_run,3.0.6,60.009945808207036,
92,ENW,ENW_2_overralka_150219.wav,n,t,,,,,0,128,128,91,,,,,,,,,,,,,,,n,1,0.3003944779993617,,,103,001,2019_Mar_13_1503,test_run,3.0.6,60.009945808207036,
23,ETW,ETW_23_promenad_070319.wav,j,t,,,,,0,129,129,22,,,,,,,,,,,,,,,j,1,0.4028487799987488,,,103,001,2019_Mar_13_1503,test_run,3.0.6,60.009945808207036,
99,ENW,ENW_9_samlemor_150219.wav,n,t,,,,,0,130,130,98,,,,,,,,,,,,,,,n,1,0.6026352190019679,,,103,001,2019_Mar_13_1503,test_run,3.0.6,60.009945808207036,
156,ENW,ENW_66_voarsmenar_150219.wav,n,t,,,,,0,131,131,155,,,,,,,,,,,,,,,n,1,0.38638175899905036,,,103,001,2019_Mar_13_1503,test_run,3.0.6,60.009945808207036,
55,EFW,EFW_25_informera_070319.wav,j,t,,,,,0,132,132,54,,,,,,,,,,,,,,,j,1,0.31974231700223754,,,103,001,2019_Mar_13_1503,test_run,3.0.6,60.009945808207036,
21,ETW,ETW_21_marmelad_070319.wav,j,t,,,,,0,133,133,20,,,,,,,,,,,,,,,j,1,0.36902486699909787,,,103,001,2019_Mar_13_1503,test_run,3.0.6,60.009945808207036,
139,ENW,ENW_49_hälskrena_150219.wav,n,t,,,,,0,134,134,138,,,,,,,,,,,,,,,n,1,0.3022284539983957,,,103,001,2019_Mar_13_1503,test_run,3.0.6,60.009945808207036,
32,EFW,EFW_2_snarare_070319.wav,j,t,,,,,0,135,135,31,,,,,,,,,,,,,,,j,1,0.3027279509988148,,,103,001,2019_Mar_13_1503,test_run,3.0.6,60.009945808207036,
91,ENW,ENW_1_norsimerar_150219.wav,n,t,,,,,0,136,136,90,,,,,,,,,,,,,,,n,1,0.41909353400114924,,,103,001,2019_Mar_13_1503,test_run,3.0.6,60.009945808207036,
144,ENW,ENW_54_lomering_150219.wav,n,t,,,,,0,137,137,143,,,,,,,,,,,,,,,j,0,0.36715393900158233,,,103,001,2019_Mar_13_1503,test_run,3.0.6,60.009945808207036,
109,ENW,ENW_19_morloren_150219.wav,n,t,,,,,0,138,138,108,,,,,,,,,,,,,,,n,1,0.3531328700009908,,,103,001,2019_Mar_13_1503,test_run,3.0.6,60.009945808207036,
50,EFW,EFW_20_fenomen_070319.wav,j,t,,,,,0,139,139,49,,,,,,,,,,,,,,,j,1,0.3030369680018339,,,103,001,2019_Mar_13_1503,test_run,3.0.6,60.009945808207036,
166,ENW,ENW_76_omfläskor_150219.wav,n,t,,,,,0,140,140,165,,,,,,,,,,,,,,,n,1,0.3531436560006114,,,103,001,2019_Mar_13_1503,test_run,3.0.6,60.009945808207036,
39,EFW,EFW_9_infektion_070319.wav,j,t,,,,,0,141,141,38,,,,,,,,,,,,,,,j,1,0.31878328300081193,,,103,001,2019_Mar_13_1503,test_run,3.0.6,60.009945808207036,
61,EFW,EFW_31_jaamfoera_070319.wav,j,t,,,,,0,142,142,60,,,,,,,,,,,,,,,j,1,0.31910294699991937,,,103,001,2019_Mar_13_1503,test_run,3.0.6,60.009945808207036,
168,ENW,ENW_78_morvinder_150219.wav,n,t,,,,,0,143,143,167,,,,,,,,,,,,,,,n,1,0.3026737719992525,,,103,001,2019_Mar_13_1503,test_run,3.0.6,60.009945808207036,
51,EFW,EFW_21_varierar_070319.wav,j,t,,,,,0,144,144,50,,,,,,,,,,,,,,,j,1,0.402773977999459,,,103,001,2019_Mar_13_1503,test_run,3.0.6,60.009945808207036,
117,ENW,ENW_27_lyssvinner_150219.wav,n,t,,,,,0,145,145,116,,,,,,,,,,,,,,,n,1,0.3865233229989826,,,103,001,2019_Mar_13_1503,test_run,3.0.6,60.009945808207036,
38,EFW,EFW_8_samman_070319.wav,j,t,,,,,0,146,146,37,,,,,,,,,,,,,,,j,1,0.41907207899930654,,,103,001,2019_Mar_13_1503,test_run,3.0.6,60.009945808207036,
111,ENW,ENW_21_tjulning_150219.wav,n,t,,,,,0,147,147,110,,,,,,,,,,,,,,,n,1,0.3856042619991058,,,103,001,2019_Mar_13_1503,test_run,3.0.6,60.009945808207036,
122,ENW,ENW_32_fonering_150219.wav,n,t,,,,,0,148,148,121,,,,,,,,,,,,,,,n,1,0.2688380040017364,,,103,001,2019_Mar_13_1503,test_run,3.0.6,60.009945808207036,
65,EFW,EFW_35_affaarer_070319.wav,j,t,,,,,0,149,149,64,,,,,,,,,,,,,,,j,1,0.5191894990020955,,,103,001,2019_Mar_13_1503,test_run,3.0.6,60.009945808207036,
150,ENW,ENW_60_lackpenar_150219.wav,n,t,,,,,0,150,150,149,,,,,,,,,,,,,,,n,1,1.6859698529988236,,,103,001,2019_Mar_13_1503,test_run,3.0.6,60.009945808207036,
45,EFW,EFW_15_oeverens_070319.wav,j,t,,,,,0,151,151,44,,,,,,,,,,,,,,,j,1,0.3521369459995185,,,103,001,2019_Mar_13_1503,test_run,3.0.6,60.009945808207036,
74,EFW,EFW_44_ljusa_070319.wav,j,t,,,,,0,152,152,73,,,,,,,,,,,,,,,j,1,0.48571650400117505,,,103,001,2019_Mar_13_1503,test_run,3.0.6,60.009945808207036,
145,ENW,ENW_55_invaskin_150219.wav,n,t,,,,,0,153,153,144,,,,,,,,,,,,,,,n,1,0.30249499999990803,,,103,001,2019_Mar_13_1503,test_run,3.0.6,60.009945808207036,
77,EFW,EFW_47_invoanare_070319.wav,j,t,,,,,0,154,154,76,,,,,,,,,,,,,,,j,1,0.30247002100077225,,,103,001,2019_Mar_13_1503,test_run,3.0.6,60.009945808207036,
138,ENW,ENW_48_skyjamsen_150219.wav,n,t,,,,,0,155,155,137,,,,,,,,,,,,,,,n,1,0.3356640279998828,,,103,001,2019_Mar_13_1503,test_run,3.0.6,60.009945808207036,
163,ENW,ENW_73_vimmankalla_150219.wav,n,t,,,,,0,156,156,162,,,,,,,,,,,,,,,n,1,0.33638809100011713,,,103,001,2019_Mar_13_1503,test_run,3.0.6,60.009945808207036,
136,ENW,ENW_46_pommera_150219.wav,n,t,,,,,0,157,157,135,,,,,,,,,,,,,,,n,1,0.2526521440013312,,,103,001,2019_Mar_13_1503,test_run,3.0.6,60.009945808207036,
153,ENW,ENW_63_femyrisk_150219.wav,n,t,,,,,0,158,158,152,,,,,,,,,,,,,,,n,1,0.28587025499655283,,,103,001,2019_Mar_13_1503,test_run,3.0.6,60.009945808207036,
69,EFW,EFW_39_foersvara_070319.wav,j,t,,,,,0,159,159,68,,,,,,,,,,,,,,,j,1,0.5026000819998444,,,103,001,2019_Mar_13_1503,test_run,3.0.6,60.009945808207036,
43,EFW,EFW_13_elever_070319.wav,j,t,,,,,0,160,160,42,,,,,,,,,,,,,,,j,1,0.31923802100209286,,,103,001,2019_Mar_13_1503,test_run,3.0.6,60.009945808207036,
46,EFW,EFW_16_lyssna_070319.wav,j,t,,,,,0,161,161,45,,,,,,,,,,,,,,,j,1,0.3355092359997798,,,103,001,2019_Mar_13_1503,test_run,3.0.6,60.009945808207036,
159,ENW,ENW_69_mjohusa_150219.wav,n,t,,,,,0,162,162,158,,,,,,,,,,,,,,,n,1,0.33647280700097326,,,103,001,2019_Mar_13_1503,test_run,3.0.6,60.009945808207036,
174,ENW,ENW_84_hurmarna_150219.wav,n,t,,,,,0,163,163,173,,,,,,,,,,,,,,,n,1,0.3170099549970473,,,103,001,2019_Mar_13_1503,test_run,3.0.6,60.009945808207036,
72,EFW,EFW_42_naavaron_070319.wav,j,t,,,,,0,164,164,71,,,,,,,,,,,,,,,j,1,0.3358836389998032,,,103,001,2019_Mar_13_1503,test_run,3.0.6,60.009945808207036,
47,EFW,EFW_17_januari_070319.wav,j,t,,,,,0,165,165,46,,,,,,,,,,,,,,,j,1,0.3525180559990986,,,103,001,2019_Mar_13_1503,test_run,3.0.6,60.009945808207036,
178,ENW,ENW_88_marsifen_150219.wav,n,t,,,,,0,166,166,177,,,,,,,,,,,,,,,n,1,0.33551583900043624,,,103,001,2019_Mar_13_1503,test_run,3.0.6,60.009945808207036,
78,EFW,EFW_48_varifroan_070319.wav,j,t,,,,,0,167,167,77,,,,,,,,,,,,,,,j,1,0.26925520399890956,,,103,001,2019_Mar_13_1503,test_run,3.0.6,60.009945808207036,
44,EFW,EFW_14_foersoeken_070319.wav,j,t,,,,,0,168,168,43,,,,,,,,,,,,,,,j,1,0.30266153500269866,,,103,001,2019_Mar_13_1503,test_run,3.0.6,60.009945808207036,
56,EFW,EFW_26_armarna_070319.wav,j,t,,,,,0,169,169,55,,,,,,,,,,,,,,,j,1,0.2864454560003651,,,103,001,2019_Mar_13_1503,test_run,3.0.6,60.009945808207036,
95,ENW,ENW_5_spoamisk_150219.wav,n,t,,,,,0,170,170,94,,,,,,,,,,,,,,,n,1,0.36950951899780193,,,103,001,2019_Mar_13_1503,test_run,3.0.6,60.009945808207036,
133,ENW,ENW_43_axalän_150219.wav,n,t,,,,,0,171,171,132,,,,,,,,,,,,,,,n,1,0.3532132990003447,,,103,001,2019_Mar_13_1503,test_run,3.0.6,60.009945808207036,
60,EFW,EFW_30_officiella_070319.wav,j,t,,,,,0,172,172,59,,,,,,,,,,,,,,,j,1,0.3187169279990485,,,103,001,2019_Mar_13_1503,test_run,3.0.6,60.009945808207036,
14,ETW,ETW_14_myriad_070319.wav,j,t,,,,,0,173,173,13,,,,,,,,,,,,,,,j,1,0.350454406998324,,,103,001,2019_Mar_13_1503,test_run,3.0.6,60.009945808207036,
123,ENW,ENW_33_froamation_150219.wav,n,t,,,,,0,174,174,122,,,,,,,,,,,,,,,n,1,0.5362161749981169,,,103,001,2019_Mar_13_1503,test_run,3.0.6,60.009945808207036,
101,ENW,ENW_11_fränna_150219.wav,n,t,,,,,0,175,175,100,,,,,,,,,,,,,,,n,1,0.5692373290003161,,,103,001,2019_Mar_13_1503,test_run,3.0.6,60.009945808207036,
3,ETW,ETW_3_choklad_070319.wav,j,t,,,,,0,176,176,2,,,,,,,,,,,,,,,j,1,0.3025543250005285,,,103,001,2019_Mar_13_1503,test_run,3.0.6,60.009945808207036,
5,ETW,ETW_5_skepnad_070319.wav,j,t,,,,,0,177,177,4,,,,,,,,,,,,,,,j,1,0.3690166339983989,,,103,001,2019_Mar_13_1503,test_run,3.0.6,60.009945808207036,
180,ENW,ENW_90_skrivinar_150219.wav,n,t,,,,,0,178,178,179,,,,,,,,,,,,,,,n,1,0.3360629329981748,,,103,001,2019_Mar_13_1503,test_run,3.0.6,60.009945808207036,
177,ENW,ENW_87_kloavare_150219.wav,n,t,,,,,0,179,179,176,,,,,,,,,,,,,,,n,1,0.2695243099988147,,,103,001,2019_Mar_13_1503,test_run,3.0.6,60.009945808207036,
31,TTF,TTF_31_brott_070319.wav,,,1,rating_d_final.csv,d,final,,,,,0,0,0,0,0,0,0,0,0,0,0,30,,,,,,5,11.987,103,001,2019_Mar_13_1503,test_run,3.0.6,60.009945808207036,
17,TTF,TTF_17_sket_070319.wav,,,1,rating_d_final.csv,d,final,,,,,0,0,0,0,0,0,0,0,0,1,1,16,,,,,,2,4.286,103,001,2019_Mar_13_1503,test_run,3.0.6,60.009945808207036,
19,TTF,TTF_19_skoet_070319.wav,,,1,rating_d_final.csv,d,final,,,,,0,0,0,0,0,0,0,0,0,2,2,18,,,,,,3,4.32,103,001,2019_Mar_13_1503,test_run,3.0.6,60.009945808207036,
9,TDF,TDF_9_bod_070319.wav,,,1,rating_d_final.csv,d,final,,,,,0,0,0,0,0,0,0,0,0,3,3,8,,,,,,5,1.687,103,001,2019_Mar_13_1503,test_run,3.0.6,60.009945808207036,
8,TDF,TDF_8_nod_070319.wav,,,1,rating_d_final.csv,d,final,,,,,0,0,0,0,0,0,0,0,0,4,4,7,,,,,,7,2.071,103,001,2019_Mar_13_1503,test_run,3.0.6,60.009945808207036,
16,TDF,TDF_16_fond_070319.wav,,,1,rating_d_final.csv,d,final,,,,,0,0,0,0,0,0,0,0,0,5,5,15,,,,,,7,2.021,103,001,2019_Mar_13_1503,test_run,3.0.6,60.009945808207036,
29,TTF,TTF_29_bett_070319.wav,,,1,rating_d_final.csv,d,final,,,,,0,0,0,0,0,0,0,0,0,6,6,28,,,,,,1,1.804,103,001,2019_Mar_13_1503,test_run,3.0.6,60.009945808207036,
32,TTF,TTF_32_hoart_070319.wav,,,1,rating_d_final.csv,d,final,,,,,0,0,0,0,0,0,0,0,0,7,7,31,,,,,,3,2.688,103,001,2019_Mar_13_1503,test_run,3.0.6,60.009945808207036,
22,TTF,TTF_22_het_070319.wav,,,1,rating_d_final.csv,d,final,,,,,0,0,0,0,0,0,0,0,0,8,8,21,,,,,,4,2.304,103,001,2019_Mar_13_1503,test_run,3.0.6,60.009945808207036,
11,TDF,TDF_11_svid_070319.wav,,,1,rating_d_final.csv,d,final,,,,,0,0,0,0,0,0,0,0,0,9,9,10,,,,,,5,1.921,103,001,2019_Mar_13_1503,test_run,3.0.6,60.009945808207036,
12,TDF,TDF_12_smed_070319.wav,,,1,rating_d_final.csv,d,final,,,,,0,0,0,0,0,0,0,0,0,10,10,11,,,,,,5,1.287,103,001,2019_Mar_13_1503,test_run,3.0.6,60.009945808207036,
30,TTF,TTF_30_slatt_070319.wav,,,1,rating_d_final.csv,d,final,,,,,0,0,0,0,0,0,0,0,0,11,11,29,,,,,,1,2.304,103,001,2019_Mar_13_1503,test_run,3.0.6,60.009945808207036,
5,TDF,TDF_5_voad_070319.wav,,,1,rating_d_final.csv,d,final,,,,,0,0,0,0,0,0,0,0,0,12,12,4,,,,,,5,1.869,103,001,2019_Mar_13_1503,test_run,3.0.6,60.009945808207036,
27,TTF,TTF_27_sant_070319.wav,,,1,rating_d_final.csv,d,final,,,,,0,0,0,0,0,0,0,0,0,13,13,26,,,,,,2,2.221,103,001,2019_Mar_13_1503,test_run,3.0.6,60.009945808207036,
15,TDF,TDF_15_nod_070319.wav,,,1,rating_d_final.csv,d,final,,,,,0,0,0,0,0,0,0,0,0,14,14,14,,,,,,5,1.253,103,001,2019_Mar_13_1503,test_run,3.0.6,60.009945808207036,
20,TTF,TTF_20_got_070319.wav,,,1,rating_d_final.csv,d,final,,,,,0,0,0,0,0,0,0,0,0,15,15,19,,,,,,4,1.121,103,001,2019_Mar_13_1503,test_run,3.0.6,60.009945808207036,
6,TDF,TDF_6_voard_070319.wav,,,1,rating_d_final.csv,d,final,,,,,0,0,0,0,0,0,0,0,0,16,16,5,,,,,,3,2.904,103,001,2019_Mar_13_1503,test_run,3.0.6,60.009945808207036,
10,TDF,TDF_10_brod_070319.wav,,,1,rating_d_final.csv,d,final,,,,,0,0,0,0,0,0,0,0,0,17,17,9,,,,,,6,0.937,103,001,2019_Mar_13_1503,test_run,3.0.6,60.009945808207036,
13,TDF,TDF_13_ljud_070319.wav,,,1,rating_d_final.csv,d,final,,,,,0,0,0,0,0,0,0,0,0,18,18,12,,,,,,7,0.871,103,001,2019_Mar_13_1503,test_run,3.0.6,60.009945808207036,
2,TDF,TDF_2_ved_070319.wav,,,1,rating_d_final.csv,d,final,,,,,0,0,0,0,0,0,0,0,0,19,19,1,,,,,,6,0.937,103,001,2019_Mar_13_1503,test_run,3.0.6,60.009945808207036,
4,TDF,TDF_4_rod_070319.wav,,,1,rating_d_final.csv,d,final,,,,,0,0,0,0,0,0,0,0,0,20,20,3,,,,,,6,1.637,103,001,2019_Mar_13_1503,test_run,3.0.6,60.009945808207036,
28,TTF,TTF_28_brant_070319.wav,,,1,rating_d_final.csv,d,final,,,,,0,0,0,0,0,0,0,0,0,21,21,27,,,,,,2,1.237,103,001,2019_Mar_13_1503,test_run,3.0.6,60.009945808207036,
25,TTF,TTF_25_synt_070319.wav,,,1,rating_d_final.csv,d,final,,,,,0,0,0,0,0,0,0,0,0,22,22,24,,,,,,3,1.086,103,001,2019_Mar_13_1503,test_run,3.0.6,60.009945808207036,
7,TDF,TDF_7_vid_070319.wav,,,1,rating_d_final.csv,d,final,,,,,0,0,0,0,0,0,0,0,0,23,23,6,,,,,,5,1.386,103,001,2019_Mar_13_1503,test_run,3.0.6,60.009945808207036,
1,TDF,TDF_1_rid_070319.wav,,,1,rating_d_final.csv,d,final,,,,,0,0,0,0,0,0,0,0,0,24,24,0,,,,,,6,0.803,103,001,2019_Mar_13_1503,test_run,3.0.6,60.009945808207036,
3,TDF,TDF_3_raad_070319.wav,,,1,rating_d_final.csv,d,final,,,,,0,0,0,0,0,0,0,0,0,25,25,2,,,,,,6,1.138,103,001,2019_Mar_13_1503,test_run,3.0.6,60.009945808207036,
21,TTF,TTF_21_gjoet_070319.wav,,,1,rating_d_final.csv,d,final,,,,,0,0,0,0,0,0,0,0,0,26,26,20,,,,,,3,0.953,103,001,2019_Mar_13_1503,test_run,3.0.6,60.009945808207036,
14,TDF,TDF_14_mod_070319.wav,,,1,rating_d_final.csv,d,final,,,,,0,0,0,0,0,0,0,0,0,27,27,13,,,,,,5,1.038,103,001,2019_Mar_13_1503,test_run,3.0.6,60.009945808207036,
18,TTF,TTF_18_skjut_070319.wav,,,1,rating_d_final.csv,d,final,,,,,0,0,0,0,0,0,0,0,0,28,28,17,,,,,,2,1.621,103,001,2019_Mar_13_1503,test_run,3.0.6,60.009945808207036,
23,TTF,TTF_23_hut_070319.wav,,,1,rating_d_final.csv,d,final,,,,,0,0,0,0,0,0,0,0,0,29,29,22,,,,,,3,0.703,103,001,2019_Mar_13_1503,test_run,3.0.6,60.009945808207036,
24,TTF,TTF_24_smit_070319.wav,,,1,rating_d_final.csv,d,final,,,,,0,0,0,0,0,0,0,0,0,30,30,23,,,,,,3,1.037,103,001,2019_Mar_13_1503,test_run,3.0.6,60.009945808207036,
26,TTF,TTF_26_rymt_070319.wav,,,1,rating_d_final.csv,d,final,,,,,0,0,0,0,0,0,0,0,0,31,31,25,,,,,,3,0.72,103,001,2019_Mar_13_1503,test_run,3.0.6,60.009945808207036,
32,TDF,TDF_32_hoard_070319.wav,,,1,rating_t_final.csv,t,final,,,,,0,0,0,0,0,1,1,1,0,0,0,31,,,,,,1,1.721,103,001,2019_Mar_13_1503,test_run,3.0.6,60.009945808207036,
12,TTF,TTF_12_smet_070319.wav,,,1,rating_t_final.csv,t,final,,,,,0,0,0,0,0,1,1,1,0,1,1,11,,,,,,6,2.821,103,001,2019_Mar_13_1503,test_run,3.0.6,60.009945808207036,
22,TDF,TDF_22_hed_070319.wav,,,1,rating_t_final.csv,t,final,,,,,0,0,0,0,0,1,1,1,0,2,2,21,,,,,,1,1.305,103,001,2019_Mar_13_1503,test_run,3.0.6,60.009945808207036,
10,TTF,TTF_10_broet_070319.wav,,,1,rating_t_final.csv,t,final,,,,,0,0,0,0,0,1,1,1,0,3,3,9,,,,,,3,1.22,103,001,2019_Mar_13_1503,test_run,3.0.6,60.009945808207036,
9,TTF,TTF_9_bot_070319.wav,,,1,rating_t_final.csv,t,final,,,,,0,0,0,0,0,1,1,1,0,4,4,8,,,,,,2,1.804,103,001,2019_Mar_13_1503,test_run,3.0.6,60.009945808207036,
13,TTF,TTF_13_gjut_070319.wav,,,1,rating_t_final.csv,t,final,,,,,0,0,0,0,0,1,1,1,0,5,5,12,,,,,,3,3.205,103,001,2019_Mar_13_1503,test_run,3.0.6,60.009945808207036,
18,TDF,TDF_18_sjud_070319.wav,,,1,rating_t_final.csv,t,final,,,,,0,0,0,0,0,1,1,1,0,6,6,17,,,,,,2,2.17,103,001,2019_Mar_13_1503,test_run,3.0.6,60.009945808207036,
5,TTF,TTF_5_voat_070319.wav,,,1,rating_t_final.csv,t,final,,,,,0,0,0,0,0,1,1,1,0,7,7,4,,,,,,5,1.321,103,001,2019_Mar_13_1503,test_run,3.0.6,60.009945808207036,
7,TTF,TTF_7_vit_070319.wav,,,1,rating_t_final.csv,t,final,,,,,0,0,0,0,0,1,1,1,0,8,8,6,,,,,,5,0.854,103,001,2019_Mar_13_1503,test_run,3.0.6,60.009945808207036,
14,TTF,TTF_14_mot_070319.wav,,,1,rating_t_final.csv,t,final,,,,,0,0,0,0,0,1,1,1,0,9,9,13,,,,,,5,1.12,103,001,2019_Mar_13_1503,test_run,3.0.6,60.009945808207036,
20,TDF,TDF_20_god_070319.wav,,,1,rating_t_final.csv,t,final,,,,,0,0,0,0,0,1,1,1,0,10,10,19,,,,,,3,0.971,103,001,2019_Mar_13_1503,test_run,3.0.6,60.009945808207036,
11,TTF,TTF_11_svit_070319.wav,,,1,rating_t_final.csv,t,final,,,,,0,0,0,0,0,1,1,1,0,11,11,10,,,,,,4,1.703,103,001,2019_Mar_13_1503,test_run,3.0.6,60.009945808207036,
3,TTF,TTF_3_raat_070319.wav,,,1,rating_t_final.csv,t,final,,,,,0,0,0,0,0,1,1,1,0,12,12,2,,,,,,5,0.887,103,001,2019_Mar_13_1503,test_run,3.0.6,60.009945808207036,
19,TDF,TDF_19_sjod_070319.wav,,,1,rating_t_final.csv,t,final,,,,,0,0,0,0,0,1,1,1,0,13,13,18,,,,,,2,1.738,103,001,2019_Mar_13_1503,test_run,3.0.6,60.009945808207036,
26,TDF,TDF_26_rymd_070319.wav,,,1,rating_t_final.csv,t,final,,,,,0,0,0,0,0,1,1,1,0,14,14,25,,,,,,1,1.27,103,001,2019_Mar_13_1503,test_run,3.0.6,60.009945808207036,
2,TTF,TTF_2_vet_070319.wav,,,1,rating_t_final.csv,t,final,,,,,0,0,0,0,0,1,1,1,0,15,15,1,,,,,,6,0.937,103,001,2019_Mar_13_1503,test_run,3.0.6,60.009945808207036,
4,TTF,TTF_4_roet_070319.wav,,,1,rating_t_final.csv,t,final,,,,,0,0,0,0,0,1,1,1,0,16,16,3,,,,,,6,0.421,103,001,2019_Mar_13_1503,test_run,3.0.6,60.009945808207036,
27,TDF,TDF_27_sand_070319.wav,,,1,rating_t_final.csv,t,final,,,,,0,0,0,0,0,1,1,1,0,17,17,26,,,,,,2,1.787,103,001,2019_Mar_13_1503,test_run,3.0.6,60.009945808207036,
25,TDF,TDF_25_synd_070319.wav,,,1,rating_t_final.csv,t,final,,,,,0,0,0,0,0,1,1,1,0,18,18,24,,,,,,3,0.638,103,001,2019_Mar_13_1503,test_run,3.0.6,60.009945808207036,
23,TDF,TDF_23_hud_070319.wav,,,1,rating_t_final.csv,t,final,,,,,0,0,0,0,0,1,1,1,0,19,19,22,,,,,,1,0.42,103,001,2019_Mar_13_1503,test_run,3.0.6,60.009945808207036,
6,TTF,TTF_6_voart_070319.wav,,,1,rating_t_final.csv,t,final,,,,,0,0,0,0,0,1,1,1,0,20,20,5,,,,,,3,1.47,103,001,2019_Mar_13_1503,test_run,3.0.6,60.009945808207036,
16,TTF,TTF_16_font_070319.wav,,,1,rating_t_final.csv,t,final,,,,,0,0,0,0,0,1,1,1,0,21,21,15,,,,,,2,1.003,103,001,2019_Mar_13_1503,test_run,3.0.6,60.009945808207036,
29,TDF,TDF_29_baadd_070319.wav,,,1,rating_t_final.csv,t,final,,,,,0,0,0,0,0,1,1,1,0,22,22,28,,,,,,3,2.137,103,001,2019_Mar_13_1503,test_run,3.0.6,60.009945808207036,
1,TTF,TTF_1_rit_070319.wav,,,1,rating_t_final.csv,t,final,,,,,0,0,0,0,0,1,1,1,0,23,23,0,,,,,,4,0.804,103,001,2019_Mar_13_1503,test_run,3.0.6,60.009945808207036,
30,TDF,TDF_30_sladd_070319.wav,,,1,rating_t_final.csv,t,final,,,,,0,0,0,0,0,1,1,1,0,24,24,29,,,,,,1,0.954,103,001,2019_Mar_13_1503,test_run,3.0.6,60.009945808207036,
15,TTF,TTF_15_not_070319.wav,,,1,rating_t_final.csv,t,final,,,,,0,0,0,0,0,1,1,1,0,25,25,14,,,,,,3,0.704,103,001,2019_Mar_13_1503,test_run,3.0.6,60.009945808207036,
28,TDF,TDF_28_brand_070319.wav,,,1,rating_t_final.csv,t,final,,,,,0,0,0,0,0,1,1,1,0,26,26,27,,,,,,2,1.853,103,001,2019_Mar_13_1503,test_run,3.0.6,60.009945808207036,
17,TDF,TDF_17_sked_070319.wav,,,1,rating_t_final.csv,t,final,,,,,0,0,0,0,0,1,1,1,0,27,27,16,,,,,,2,1.221,103,001,2019_Mar_13_1503,test_run,3.0.6,60.009945808207036,
31,TDF,TDF_31_brodd_070319.wav,,,1,rating_t_final.csv,t,final,,,,,0,0,0,0,0,1,1,1,0,28,28,30,,,,,,2,0.971,103,001,2019_Mar_13_1503,test_run,3.0.6,60.009945808207036,
24,TDF,TDF_24_smid_070319.wav,,,1,rating_t_final.csv,t,final,,,,,0,0,0,0,0,1,1,1,0,29,29,23,,,,,,2,1.587,103,001,2019_Mar_13_1503,test_run,3.0.6,60.009945808207036,
8,TTF,TTF_8_noet_070319.wav,,,1,rating_t_final.csv,t,final,,,,,0,0,0,0,0,1,1,1,0,30,30,7,,,,,,3,0.588,103,001,2019_Mar_13_1503,test_run,3.0.6,60.009945808207036,
21,TDF,TDF_21_ljod _070319.wav,,,1,rating_t_final.csv,t,final,,,,,0,0,0,0,0,1,1,1,0,31,31,20,,,,,,2,1.671,103,001,2019_Mar_13_1503,test_run,3.0.6,60.009945808207036,
7,TTI,TTI_7_tenn_150219.wav,,,2,rating_t_initial.csv,t,initial,,,,,0,1,1,1,0,0,0,1,0,0,0,6,,,,,,3,4.904,103,001,2019_Mar_13_1503,test_run,3.0.6,60.009945808207036,
13,TTI,TTI_13_tog_150219.wav,,,2,rating_t_initial.csv,t,initial,,,,,0,1,1,1,0,0,0,1,0,1,1,12,,,,,,5,0.72,103,001,2019_Mar_13_1503,test_run,3.0.6,60.009945808207036,
6,TTI,TTI_6_teg_150219.wav,,,2,rating_t_initial.csv,t,initial,,,,,0,1,1,1,0,0,0,1,0,2,2,5,,,,,,4,2.071,103,001,2019_Mar_13_1503,test_run,3.0.6,60.009945808207036,
26,TDI,TDI_26_doe_150219.wav,,,2,rating_t_initial.csv,t,initial,,,,,0,1,1,1,0,0,0,1,0,3,3,25,,,,,,1,0.588,103,001,2019_Mar_13_1503,test_run,3.0.6,60.009945808207036,
27,TDI,TDI_27_doem_edit_150219.wav,,,2,rating_t_initial.csv,t,initial,,,,,0,1,1,1,0,0,0,1,0,4,4,26,,,,,,1,1.454,103,001,2019_Mar_13_1503,test_run,3.0.6,60.009945808207036,
8,TTI,TTI_8_tia_150219.wav,,,2,rating_t_initial.csv,t,initial,,,,,0,1,1,1,0,0,0,1,0,5,5,7,,,,,,4,1.67,103,001,2019_Mar_13_1503,test_run,3.0.6,60.009945808207036,
15,TDI,TDI_15_dom_150219.wav,,,2,rating_t_initial.csv,t,initial,,,,,0,1,1,1,0,0,0,1,0,6,6,14,,,,,,2,0.936,103,001,2019_Mar_13_1503,test_run,3.0.6,60.009945808207036,
18,TDI,TDI_18_dum_150219.wav,,,2,rating_t_initial.csv,t,initial,,,,,0,1,1,1,0,0,0,1,0,7,7,17,,,,,,2,0.671,103,001,2019_Mar_13_1503,test_run,3.0.6,60.009945808207036,
20,TDI,TDI_20_dur_150219.wav,,,2,rating_t_initial.csv,t,initial,,,,,0,1,1,1,0,0,0,1,0,8,8,19,,,,,,1,1.121,103,001,2019_Mar_13_1503,test_run,3.0.6,60.009945808207036,
3,TTI,TTI_3_tal_150219.wav,,,2,rating_t_initial.csv,t,initial,,,,,0,1,1,1,0,0,0,1,0,9,9,2,,,,,,5,0.738,103,001,2019_Mar_13_1503,test_run,3.0.6,60.009945808207036,
1,TTI,TTI_1_tag_150219.wav,,,2,rating_t_initial.csv,t,initial,,,,,0,1,1,1,0,0,0,1,0,10,10,0,,,,,,5,0.637,103,001,2019_Mar_13_1503,test_run,3.0.6,60.009945808207036,
17,TDI,TDI_17_dopp_150219.wav,,,2,rating_t_initial.csv,t,initial,,,,,0,1,1,1,0,0,0,1,0,11,11,16,,,,,,2,0.484,103,001,2019_Mar_13_1503,test_run,3.0.6,60.009945808207036,
10,TTI,TTI_10_titt_150219.wav,,,2,rating_t_initial.csv,t,initial,,,,,0,1,1,1,0,0,0,1,0,12,12,9,,,,,,3,0.637,103,001,2019_Mar_13_1503,test_run,3.0.6,60.009945808207036,
9,TTI,TTI_9_till_150219.wav,,,2,rating_t_initial.csv,t,initial,,,,,0,1,1,1,0,0,0,1,0,13,13,8,,,,,,4,0.736,103,001,2019_Mar_13_1503,test_run,3.0.6,60.009945808207036,
4,TTI,TTI_4_tam_150219.wav,,,2,rating_t_initial.csv,t,initial,,,,,0,1,1,1,0,0,0,1,0,14,14,3,,,,,,6,0.687,103,001,2019_Mar_13_1503,test_run,3.0.6,60.009945808207036,
23,TDI,TDI_23_doa_150219.wav,,,2,rating_t_initial.csv,t,initial,,,,,0,1,1,1,0,0,0,1,0,15,15,22,,,,,,5,0.603,103,001,2019_Mar_13_1503,test_run,3.0.6,60.009945808207036,
5,TTI,TTI_5_tass_150219.wav,,,2,rating_t_initial.csv,t,initial,,,,,0,1,1,1,0,0,0,1,0,16,16,4,,,,,,2,0.753,103,001,2019_Mar_13_1503,test_run,3.0.6,60.009945808207036,
11,TTI,TTI_11_tipp_150219.wav,,,2,rating_t_initial.csv,t,initial,,,,,0,1,1,1,0,0,0,1,0,17,17,10,,,,,,4,0.72,103,001,2019_Mar_13_1503,test_run,3.0.6,60.009945808207036,
21,TDI,TDI_21_dugg_150219.wav,,,2,rating_t_initial.csv,t,initial,,,,,0,1,1,1,0,0,0,1,0,18,18,20,,,,,,2,0.704,103,001,2019_Mar_13_1503,test_run,3.0.6,60.009945808207036,
24,TDI,TDI_24_daack_150219.wav,,,2,rating_t_initial.csv,t,initial,,,,,0,1,1,1,0,0,0,1,0,19,19,23,,,,,,2,0.437,103,001,2019_Mar_13_1503,test_run,3.0.6,60.009945808207036,
19,TDI,TDI_19_dun_150219.wav,,,2,rating_t_initial.csv,t,initial,,,,,0,1,1,1,0,0,0,1,0,20,20,18,,,,,,1,1.021,103,001,2019_Mar_13_1503,test_run,3.0.6,60.009945808207036,
16,TDI,TDI_16_don_150219.wav,,,2,rating_t_initial.csv,t,initial,,,,,0,1,1,1,0,0,0,1,0,21,21,15,,,,,,1,1.055,103,001,2019_Mar_13_1503,test_run,3.0.6,60.009945808207036,
14,TTI,TTI_14_tok_150219.wav,,,2,rating_t_initial.csv,t,initial,,,,,0,1,1,1,0,0,0,1,0,22,22,13,,,,,,6,1.053,103,001,2019_Mar_13_1503,test_run,3.0.6,60.009945808207036,
25,TDI,TDI_25_daar_150219.wav,,,2,rating_t_initial.csv,t,initial,,,,,0,1,1,1,0,0,0,1,0,23,23,24,,,,,,1,0.87,103,001,2019_Mar_13_1503,test_run,3.0.6,60.009945808207036,
2,TTI,TTI_2_tagg_150219.wav,,,2,rating_t_initial.csv,t,initial,,,,,0,1,1,1,0,0,0,1,0,24,24,1,,,,,,4,1.171,103,001,2019_Mar_13_1503,test_run,3.0.6,60.009945808207036,
12,TTI,TTI_12_toa_150219.wav,,,2,rating_t_initial.csv,t,initial,,,,,0,1,1,1,0,0,0,1,0,25,25,11,,,,,,6,2.72,103,001,2019_Mar_13_1503,test_run,3.0.6,60.009945808207036,
22,TDI,TDI_22_dy_150219.wav,,,2,rating_t_initial.csv,t,initial,,,,,0,1,1,1,0,0,0,1,0,26,26,21,,,,,,2,0.437,103,001,2019_Mar_13_1503,test_run,3.0.6,60.009945808207036,
23,TTI,TTI_23_toa_150219.wav,,,2,rating_d_initial.csv,d,initial,,,,,0,1,1,1,0,1,1,0,0,0,0,22,,,,,,2,1.37,103,001,2019_Mar_13_1503,test_run,3.0.6,60.009945808207036,
2,TDI,TDI_2_dagg_150219.wav,,,2,rating_d_initial.csv,d,initial,,,,,0,1,1,1,0,1,1,0,0,1,1,1,,,,,,3,1.454,103,001,2019_Mar_13_1503,test_run,3.0.6,60.009945808207036,
24,TTI,TTI_24_taack_150219.wav,,,2,rating_d_initial.csv,d,initial,,,,,0,1,1,1,0,1,1,0,0,2,2,23,,,,,,1,0.404,103,001,2019_Mar_13_1503,test_run,3.0.6,60.009945808207036,
18,TTI,TTI_18_tum_150219.wav,,,2,rating_d_initial.csv,d,initial,,,,,0,1,1,1,0,1,1,0,0,3,3,17,,,,,,2,0.504,103,001,2019_Mar_13_1503,test_run,3.0.6,60.009945808207036,
5,TDI,TDI_5_dass_150219.wav,,,2,rating_d_initial.csv,d,initial,,,,,0,1,1,1,0,1,1,0,0,4,4,4,,,,,,4,1.986,103,001,2019_Mar_13_1503,test_run,3.0.6,60.009945808207036,
26,TTI,TTI_26_toe_150219.wav,,,2,rating_d_initial.csv,d,initial,,,,,0,1,1,1,0,1,1,0,0,5,5,25,,,,,,2,2.071,103,001,2019_Mar_13_1503,test_run,3.0.6,60.009945808207036,
1,TDI,TDI_1_dag_150219.wav,,,2,rating_d_initial.csv,d,initial,,,,,0,1,1,1,0,1,1,0,0,6,6,0,,,,,,3,0.455,103,001,2019_Mar_13_1503,test_run,3.0.6,60.009945808207036,
27,TTI,TTI_27_toem_150219.wav,,,2,rating_d_initial.csv,d,initial,,,,,0,1,1,1,0,1,1,0,0,7,7,26,,,,,,1,0.537,103,001,2019_Mar_13_1503,test_run,3.0.6,60.009945808207036,
13,TDI,TDI_13_dog_150219.wav,,,2,rating_d_initial.csv,d,initial,,,,,0,1,1,1,0,1,1,0,0,8,8,12,,,,,,4,0.687,103,001,2019_Mar_13_1503,test_run,3.0.6,60.009945808207036,
20,TTI,TTI_20_tur_150219.wav,,,2,rating_d_initial.csv,d,initial,,,,,0,1,1,1,0,1,1,0,0,9,9,19,,,,,,2,0.837,103,001,2019_Mar_13_1503,test_run,3.0.6,60.009945808207036,
8,TDI,TDI_8_dia_150219.wav,,,2,rating_d_initial.csv,d,initial,,,,,0,1,1,1,0,1,1,0,0,10,10,7,,,,,,6,0.454,103,001,2019_Mar_13_1503,test_run,3.0.6,60.009945808207036,
11,TDI,TDI_11_dipp_150219.wav,,,2,rating_d_initial.csv,d,initial,,,,,0,1,1,1,0,1,1,0,0,11,11,10,,,,,,7,0.87,103,001,2019_Mar_13_1503,test_run,3.0.6,60.009945808207036,
7,TDI,TDI_7_den_150219.wav,,,2,rating_d_initial.csv,d,initial,,,,,0,1,1,1,0,1,1,0,0,12,12,6,,,,,,7,0.771,103,001,2019_Mar_13_1503,test_run,3.0.6,60.009945808207036,
10,TDI,TDI_10_ditt_150219.wav,,,2,rating_d_initial.csv,d,initial,,,,,0,1,1,1,0,1,1,0,0,13,13,9,,,,,,7,0.804,103,001,2019_Mar_13_1503,test_run,3.0.6,60.009945808207036,
14,TDI,TDI_14_dok_150219.wav,,,2,rating_d_initial.csv,d,initial,,,,,0,1,1,1,0,1,1,0,0,14,14,13,,,,,,7,0.937,103,001,2019_Mar_13_1503,test_run,3.0.6,60.009945808207036,
6,TDI,TDI_6_deg_150219.wav,,,2,rating_d_initial.csv,d,initial,,,,,0,1,1,1,0,1,1,0,0,15,15,5,,,,,,7,0.787,103,001,2019_Mar_13_1503,test_run,3.0.6,60.009945808207036,
16,TTI,TTI_16_ton_150219.wav,,,2,rating_d_initial.csv,d,initial,,,,,0,1,1,1,0,1,1,0,0,16,16,15,,,,,,2,0.468,103,001,2019_Mar_13_1503,test_run,3.0.6,60.009945808207036,
19,TTI,TTI_19_tun_150219.wav,,,2,rating_d_initial.csv,d,initial,,,,,0,1,1,1,0,1,1,0,0,17,17,18,,,,,,3,0.753,103,001,2019_Mar_13_1503,test_run,3.0.6,60.009945808207036,
15,TTI,TTI_15_tom_150219.wav,,,2,rating_d_initial.csv,d,initial,,,,,0,1,1,1,0,1,1,0,0,18,18,14,,,,,,1,0.604,103,001,2019_Mar_13_1503,test_run,3.0.6,60.009945808207036,
3,TDI,TDI_3_dal_150219.wav,,,2,rating_d_initial.csv,d,initial,,,,,0,1,1,1,0,1,1,0,0,19,19,2,,,,,,5,0.938,103,001,2019_Mar_13_1503,test_run,3.0.6,60.009945808207036,
25,TTI,TTI_25_taar_150219.wav,,,2,rating_d_initial.csv,d,initial,,,,,0,1,1,1,0,1,1,0,0,20,20,24,,,,,,4,1.02,103,001,2019_Mar_13_1503,test_run,3.0.6,60.009945808207036,
21,TTI,TTI_21_tugg_150219.wav,,,2,rating_d_initial.csv,d,initial,,,,,0,1,1,1,0,1,1,0,0,21,21,20,,,,,,1,1.054,103,001,2019_Mar_13_1503,test_run,3.0.6,60.009945808207036,
12,TDI,TDI_12_doa_150219.wav,,,2,rating_d_initial.csv,d,initial,,,,,0,1,1,1,0,1,1,0,0,22,22,11,,,,,,4,0.421,103,001,2019_Mar_13_1503,test_run,3.0.6,60.009945808207036,
22,TTI,TTI_22_ty_150219.wav,,,2,rating_d_initial.csv,d,initial,,,,,0,1,1,1,0,1,1,0,0,23,23,21,,,,,,3,0.92,103,001,2019_Mar_13_1503,test_run,3.0.6,60.009945808207036,
17,TTI,TTI_17_topp_150219.wav,,,2,rating_d_initial.csv,d,initial,,,,,0,1,1,1,0,1,1,0,0,24,24,16,,,,,,1,0.588,103,001,2019_Mar_13_1503,test_run,3.0.6,60.009945808207036,
4,TDI,TDI_4_dam_150219.wav,,,2,rating_d_initial.csv,d,initial,,,,,0,1,1,1,0,1,1,0,0,25,25,3,,,,,,5,0.454,103,001,2019_Mar_13_1503,test_run,3.0.6,60.009945808207036,
9,TDI,TDI_9_dill_150219.wav,,,2,rating_d_initial.csv,d,initial,,,,,0,1,1,1,0,1,1,0,0,26,26,8,,,,,,6,0.87,103,001,2019_Mar_13_1503,test_run,3.0.6,60.009945808207036,
