item,item_cond,sound,corr_ans,group,block_id,listname,rating_for,position,trials.thisRepN,trials.thisTrialN,trials.thisN,trials.thisIndex,run_block_type.thisRepN,run_block_type.thisTrialN,run_block_type.thisN,run_block_type.thisIndex,routine.thisRepN,routine.thisTrialN,routine.thisN,routine.thisIndex,rating_trials.thisRepN,rating_trials.thisTrialN,rating_trials.thisN,rating_trials.thisIndex,key_resp_1.keys,key_resp_1.rt,key_resp_2.keys,key_resp_2.corr,key_resp_2.rt,rating_1.response,rating_1.rt,participant,session,date,expName,psychopyVersion,frameRate,
,,,,,,,,,,,,,,,,,,,,,,,,,space,21.337790991001384,,,,,,104,001,2019_Mar_13_1555,test_run,3.0.6,60.00250666527716,
82,EFW,EFW_52_framhoalla_070319.wav,j,c ,,,,,0,0,0,81,,,,,,,,,,,,,,,j,1,2.483651712002029,,,104,001,2019_Mar_13_1555,test_run,3.0.6,60.00250666527716,
1,ECW,ECW_1_anka_070319.wav,j,c ,,,,,0,1,1,0,,,,,,,,,,,,,,,j,1,3.6690373759993236,,,104,001,2019_Mar_13_1555,test_run,3.0.6,60.00250666527716,
63,EFW,EFW_33_elva_070319.wav,j,c ,,,,,0,2,2,62,,,,,,,,,,,,,,,j,1,1.1699818659981247,,,104,001,2019_Mar_13_1555,test_run,3.0.6,60.00250666527716,
27,ECW,ECW_27_panorama_070319.wav,j,c ,,,,,0,3,3,26,,,,,,,,,,,,,,,j,1,1.0360640740000235,,,104,001,2019_Mar_13_1555,test_run,3.0.6,60.00250666527716,
95,ENW,ENW_5_spoamisk_150219.wav,n,c ,,,,,0,4,4,94,,,,,,,,,,,,,,,n,1,1.050293355001486,,,104,001,2019_Mar_13_1555,test_run,3.0.6,60.00250666527716,
99,ENW,ENW_9_samlemor_150219.wav,n,c ,,,,,0,5,5,98,,,,,,,,,,,,,,,n,1,0.8186551889994007,,,104,001,2019_Mar_13_1555,test_run,3.0.6,60.00250666527716,
20,ECW,ECW_20_sommarspel_070319.wav,j,c ,,,,,0,6,6,19,,,,,,,,,,,,,,,j,1,1.2688301710004453,,,104,001,2019_Mar_13_1555,test_run,3.0.6,60.00250666527716,
49,EFW,EFW_19_roerelse_070319.wav,j,c ,,,,,0,7,7,48,,,,,,,,,,,,,,,j,1,0.8524854309980583,,,104,001,2019_Mar_13_1555,test_run,3.0.6,60.00250666527716,
161,ENW,ENW_71_forskäckla_150219.wav,n,c ,,,,,0,8,8,160,,,,,,,,,,,,,,,n,1,0.6696620029979385,,,104,001,2019_Mar_13_1555,test_run,3.0.6,60.00250666527716,
162,ENW,ENW_72_urskecken_150219.wav,n,c ,,,,,0,9,9,161,,,,,,,,,,,,,,,n,1,0.6855323119998502,,,104,001,2019_Mar_13_1555,test_run,3.0.6,60.00250666527716,
169,ENW,ENW_79_lyxmare_150219.wav,n,c ,,,,,0,10,10,168,,,,,,,,,,,,,,,n,1,0.7192464900035702,,,104,001,2019_Mar_13_1555,test_run,3.0.6,60.00250666527716,
96,ENW,ENW_6_vilfroaser_150219.wav,n,c ,,,,,0,11,11,95,,,,,,,,,,,,,,,n,1,0.9862649200003943,,,104,001,2019_Mar_13_1555,test_run,3.0.6,60.00250666527716,
120,ENW,ENW_30_sojera_150219.wav,n,c ,,,,,0,12,12,119,,,,,,,,,,,,,,,n,1,0.7861226710010669,,,104,001,2019_Mar_13_1555,test_run,3.0.6,60.00250666527716,
64,EFW,EFW_34_sommar_070319.wav,j,c ,,,,,0,13,13,63,,,,,,,,,,,,,,,j,1,0.636359263000486,,,104,001,2019_Mar_13_1555,test_run,3.0.6,60.00250666527716,
54,EFW,EFW_24_foersvinner_070319.wav,j,c ,,,,,0,14,14,53,,,,,,,,,,,,,,,j,1,0.8028377899972838,,,104,001,2019_Mar_13_1555,test_run,3.0.6,60.00250666527716,
25,ECW,ECW_25_oeverfoeras_070319.wav,j,c ,,,,,0,15,15,24,,,,,,,,,,,,,,,j,1,0.836017539997556,,,104,001,2019_Mar_13_1555,test_run,3.0.6,60.00250666527716,
28,ECW,ECW_28_maskinerna_070319.wav,j,c ,,,,,0,16,16,27,,,,,,,,,,,,,,,j,1,0.6188663399989309,,,104,001,2019_Mar_13_1555,test_run,3.0.6,60.00250666527716,
39,EFW,EFW_9_infektion_070319.wav,j,c ,,,,,0,17,17,38,,,,,,,,,,,,,,,j,1,0.5187946750011179,,,104,001,2019_Mar_13_1555,test_run,3.0.6,60.00250666527716,
16,ECW,ECW_16_skinskalle_070319.wav,j,c ,,,,,0,18,18,15,,,,,,,,,,,,,,,j,1,0.5191069779975805,,,104,001,2019_Mar_13_1555,test_run,3.0.6,60.00250666527716,
97,ENW,ENW_7_flasera_150219.wav,n,c ,,,,,0,19,19,96,,,,,,,,,,,,,,,n,1,0.6355942839982163,,,104,001,2019_Mar_13_1555,test_run,3.0.6,60.00250666527716,
35,EFW,EFW_5_samhaalle_070319.wav,j,c ,,,,,0,20,20,34,,,,,,,,,,,,,,,j,1,0.4697472480002034,,,104,001,2019_Mar_13_1555,test_run,3.0.6,60.00250666527716,
23,ECW,ECW_23_maximal_070319.wav,j,c ,,,,,0,21,21,22,,,,,,,,,,,,,,,j,1,0.7837764209980378,,,104,001,2019_Mar_13_1555,test_run,3.0.6,60.00250666527716,
67,EFW,EFW_37_foervisso_070319.wav,j,c ,,,,,0,22,22,66,,,,,,,,,,,,,,,j,1,0.5697649169997021,,,104,001,2019_Mar_13_1555,test_run,3.0.6,60.00250666527716,
14,ECW,ECW_14_excellens_070319.wav,j,c ,,,,,0,23,23,13,,,,,,,,,,,,,,,j,1,0.652732817998185,,,104,001,2019_Mar_13_1555,test_run,3.0.6,60.00250666527716,
143,ENW,ENW_53_svarmvisso_150219.wav,n,c ,,,,,0,24,24,142,,,,,,,,,,,,,,,n,1,0.7029087020018778,,,104,001,2019_Mar_13_1555,test_run,3.0.6,60.00250666527716,
153,ENW,ENW_63_femyrisk_150219.wav,n,c ,,,,,0,25,25,152,,,,,,,,,,,,,,,n,1,1.9692460670012224,,,104,001,2019_Mar_13_1555,test_run,3.0.6,60.00250666527716,
3,ECW,ECW_3_virus_070319.wav,j,c ,,,,,0,26,26,2,,,,,,,,,,,,,,,j,1,0.6029020919995673,,,104,001,2019_Mar_13_1555,test_run,3.0.6,60.00250666527716,
9,ECW,ECW_9_spinna_070319.wav,j,c ,,,,,0,27,27,8,,,,,,,,,,,,,,,j,1,0.7689839259983273,,,104,001,2019_Mar_13_1555,test_run,3.0.6,60.00250666527716,
164,ENW,ENW_74_malsera_150219.wav,n,c ,,,,,0,28,28,163,,,,,,,,,,,,,,,n,1,0.5356834120029816,,,104,001,2019_Mar_13_1555,test_run,3.0.6,60.00250666527716,
90,EFW,EFW_60_insulin_070319.wav,j,c ,,,,,0,29,29,89,,,,,,,,,,,,,,,j,1,0.5359048299978895,,,104,001,2019_Mar_13_1555,test_run,3.0.6,60.00250666527716,
59,EFW,EFW_29_formen_070319.wav,j,c ,,,,,0,30,30,58,,,,,,,,,,,,,,,j,1,0.8195573580014752,,,104,001,2019_Mar_13_1555,test_run,3.0.6,60.00250666527716,
10,ECW,ECW_10_flisa_070319.wav,j,c ,,,,,0,31,31,9,,,,,,,,,,,,,,,j,1,0.5027263010015304,,,104,001,2019_Mar_13_1555,test_run,3.0.6,60.00250666527716,
106,ENW,ENW_16_rolinkar_150219.wav,n,c ,,,,,0,32,32,105,,,,,,,,,,,,,,,n,1,0.5864849999998114,,,104,001,2019_Mar_13_1555,test_run,3.0.6,60.00250666527716,
58,EFW,EFW_28_olja_070319.wav,j,c ,,,,,0,33,33,57,,,,,,,,,,,,,,,j,1,1.4840497730001516,,,104,001,2019_Mar_13_1555,test_run,3.0.6,60.00250666527716,
92,ENW,ENW_2_overralka_150219.wav,n,c ,,,,,0,34,34,91,,,,,,,,,,,,,,,n,1,0.48611201999665354,,,104,001,2019_Mar_13_1555,test_run,3.0.6,60.00250666527716,
174,ENW,ENW_84_hurmarna_150219.wav,n,c ,,,,,0,35,35,173,,,,,,,,,,,,,,,n,1,0.6357787159977306,,,104,001,2019_Mar_13_1555,test_run,3.0.6,60.00250666527716,
126,ENW,ENW_36_skymlosa_150219.wav,n,c ,,,,,0,36,36,125,,,,,,,,,,,,,,,n,1,0.8201444030019047,,,104,001,2019_Mar_13_1555,test_run,3.0.6,60.00250666527716,
22,ECW,ECW_22_anonyma_070319.wav,j,c ,,,,,0,37,37,21,,,,,,,,,,,,,,,j,1,0.48591066199878696,,,104,001,2019_Mar_13_1555,test_run,3.0.6,60.00250666527716,
46,EFW,EFW_16_lyssna_070319.wav,j,c ,,,,,0,38,38,45,,,,,,,,,,,,,,,j,1,0.5527720559985028,,,104,001,2019_Mar_13_1555,test_run,3.0.6,60.00250666527716,
118,ENW,ENW_28_läkermask_150219.wav,n,c ,,,,,0,39,39,117,,,,,,,,,,,,,,,j,0,0.7530502260015055,,,104,001,2019_Mar_13_1555,test_run,3.0.6,60.00250666527716,
110,ENW,ENW_20_invonen_150219.wav,n,c ,,,,,0,40,40,109,,,,,,,,,,,,,,,n,1,0.46873949699875084,,,104,001,2019_Mar_13_1555,test_run,3.0.6,60.00250666527716,
87,EFW,EFW_57_loenerna_070319.wav,j,c ,,,,,0,41,41,86,,,,,,,,,,,,,,,j,1,0.48573526500331354,,,104,001,2019_Mar_13_1555,test_run,3.0.6,60.00250666527716,
171,ENW,ENW_81_persifera_150219.wav,n,c ,,,,,0,42,42,170,,,,,,,,,,,,,,,n,1,0.836062641999888,,,104,001,2019_Mar_13_1555,test_run,3.0.6,60.00250666527716,
180,ENW,ENW_90_skrivinar_150219.wav,n,c ,,,,,0,43,43,179,,,,,,,,,,,,,,,n,1,0.5364216320012929,,,104,001,2019_Mar_13_1555,test_run,3.0.6,60.00250666527716,
149,ENW,ENW_59_kyrkmänning_150219.wav,n,c ,,,,,0,44,44,148,,,,,,,,,,,,,,,n,1,1.0696120299980976,,,104,001,2019_Mar_13_1555,test_run,3.0.6,60.00250666527716,
84,EFW,EFW_54_romaner_070319.wav,j,c ,,,,,0,45,45,83,,,,,,,,,,,,,,,j,1,0.5525913980018231,,,104,001,2019_Mar_13_1555,test_run,3.0.6,60.00250666527716,
42,EFW,EFW_12_foeremoal_070319.wav,j,c ,,,,,0,46,46,41,,,,,,,,,,,,,,,j,1,0.8525938080019841,,,104,001,2019_Mar_13_1555,test_run,3.0.6,60.00250666527716,
6,ECW,ECW_6_sila_070319.wav,j,c ,,,,,0,47,47,5,,,,,,,,,,,,,,,n,0,0.6031360150009277,,,104,001,2019_Mar_13_1555,test_run,3.0.6,60.00250666527716,
166,ENW,ENW_76_omfläskor_150219.wav,n,c ,,,,,0,48,48,165,,,,,,,,,,,,,,,n,1,0.7194459109996387,,,104,001,2019_Mar_13_1555,test_run,3.0.6,60.00250666527716,
141,ENW,ENW_51_skillare_150219.wav,n,c ,,,,,0,49,49,140,,,,,,,,,,,,,,,n,1,0.8029113370030245,,,104,001,2019_Mar_13_1555,test_run,3.0.6,60.00250666527716,
13,ECW,ECW_13_kanonform_070319.wav,j,c ,,,,,0,50,50,12,,,,,,,,,,,,,,,j,1,0.6861339749993931,,,104,001,2019_Mar_13_1555,test_run,3.0.6,60.00250666527716,
75,EFW,EFW_45_innanfoer_070319.wav,j,c ,,,,,0,51,51,74,,,,,,,,,,,,,,,j,1,0.6169059929998184,,,104,001,2019_Mar_13_1555,test_run,3.0.6,60.00250666527716,
32,EFW,EFW_2_snarare_070319.wav,j,c ,,,,,0,52,52,31,,,,,,,,,,,,,,,j,1,0.5024489759998687,,,104,001,2019_Mar_13_1555,test_run,3.0.6,60.00250666527716,
18,ECW,ECW_18_morkulla_070319.wav,j,c ,,,,,0,53,53,17,,,,,,,,,,,,,,,j,1,0.5196384090013453,,,104,001,2019_Mar_13_1555,test_run,3.0.6,60.00250666527716,
101,ENW,ENW_11_fränna_150219.wav,n,c ,,,,,0,54,54,100,,,,,,,,,,,,,,,n,1,0.8196348740020767,,,104,001,2019_Mar_13_1555,test_run,3.0.6,60.00250666527716,
93,ENW,ENW_3_vissorens_150219.wav,n,c ,,,,,0,55,55,92,,,,,,,,,,,,,,,n,1,0.6361254770017695,,,104,001,2019_Mar_13_1555,test_run,3.0.6,60.00250666527716,
150,ENW,ENW_60_lackpenar_150219.wav,n,c ,,,,,0,56,56,149,,,,,,,,,,,,,,,n,1,0.5188917279992893,,,104,001,2019_Mar_13_1555,test_run,3.0.6,60.00250666527716,
121,ENW,ENW_31_romation_150219.wav,n,c ,,,,,0,57,57,120,,,,,,,,,,,,,,,n,1,0.5524138109976775,,,104,001,2019_Mar_13_1555,test_run,3.0.6,60.00250666527716,
19,ECW,ECW_19_persiska_070319.wav,j,c ,,,,,0,58,58,18,,,,,,,,,,,,,,,j,1,0.6697628729998542,,,104,001,2019_Mar_13_1555,test_run,3.0.6,60.00250666527716,
88,EFW,EFW_58_examen_070319.wav,j,c ,,,,,0,59,59,87,,,,,,,,,,,,,,,j,1,0.6172423700008949,,,104,001,2019_Mar_13_1555,test_run,3.0.6,60.00250666527716,
105,ENW,ENW_15_forfeckla_150219.wav,n,c ,,,,,0,60,60,104,,,,,,,,,,,,,,,j,0,1.3690243340024608,,,104,001,2019_Mar_13_1555,test_run,3.0.6,60.00250666527716,
148,ENW,ENW_58_malvossa_150219.wav,n,c ,,,,,0,61,61,147,,,,,,,,,,,,,,,n,1,0.5689985860008164,,,104,001,2019_Mar_13_1555,test_run,3.0.6,60.00250666527716,
123,ENW,ENW_33_froamation_150219.wav,n,c ,,,,,0,62,62,122,,,,,,,,,,,,,,,n,1,1.0190476759999,,,104,001,2019_Mar_13_1555,test_run,3.0.6,60.00250666527716,
51,EFW,EFW_21_varierar_070319.wav,j,c ,,,,,0,63,63,50,,,,,,,,,,,,,,,j,1,0.6669790589985496,,,104,001,2019_Mar_13_1555,test_run,3.0.6,60.00250666527716,
114,ENW,ENW_24_samjoner_150219.wav,n,c ,,,,,0,64,64,113,,,,,,,,,,,,,,,n,1,1.0862547959986841,,,104,001,2019_Mar_13_1555,test_run,3.0.6,60.00250666527716,
147,ENW,ENW_57_flovanning_150219.wav,n,c ,,,,,0,65,65,146,,,,,,,,,,,,,,,n,1,0.6526035479982966,,,104,001,2019_Mar_13_1555,test_run,3.0.6,60.00250666527716,
8,ECW,ECW_8_fryshus_070319.wav,j,c ,,,,,0,66,66,7,,,,,,,,,,,,,,,j,1,0.7357532649984933,,,104,001,2019_Mar_13_1555,test_run,3.0.6,60.00250666527716,
52,EFW,EFW_22_normala_070319.wav,j,c ,,,,,0,67,67,51,,,,,,,,,,,,,,,j,1,1.353083322999737,,,104,001,2019_Mar_13_1555,test_run,3.0.6,60.00250666527716,
98,ENW,ENW_8_haväras_150219.wav,n,c ,,,,,0,68,68,97,,,,,,,,,,,,,,,j,0,4.737095791002503,,,104,001,2019_Mar_13_1555,test_run,3.0.6,60.00250666527716,
61,EFW,EFW_31_jaamfoera_070319.wav,j,c ,,,,,0,69,69,60,,,,,,,,,,,,,,,j,1,1.0860087309993105,,,104,001,2019_Mar_13_1555,test_run,3.0.6,60.00250666527716,
81,EFW,EFW_51_seminarier_070319.wav,j,c ,,,,,0,70,70,80,,,,,,,,,,,,,,,j,1,0.9525213019987859,,,104,001,2019_Mar_13_1555,test_run,3.0.6,60.00250666527716,
122,ENW,ENW_32_fonering_150219.wav,n,c ,,,,,0,71,71,121,,,,,,,,,,,,,,,n,1,0.5863078469992615,,,104,001,2019_Mar_13_1555,test_run,3.0.6,60.00250666527716,
5,ECW,ECW_5_kamma_070319.wav,j,c ,,,,,0,72,72,4,,,,,,,,,,,,,,,n,0,0.8520691220001027,,,104,001,2019_Mar_13_1555,test_run,3.0.6,60.00250666527716,
38,EFW,EFW_8_samman_070319.wav,j,c ,,,,,0,73,73,37,,,,,,,,,,,,,,,j,1,0.6696277819974057,,,104,001,2019_Mar_13_1555,test_run,3.0.6,60.00250666527716,
135,ENW,ENW_45_fammoarens_150219.wav,n,c ,,,,,0,74,74,134,,,,,,,,,,,,,,,n,1,0.7336908260003838,,,104,001,2019_Mar_13_1555,test_run,3.0.6,60.00250666527716,
80,EFW,EFW_50_snaalla_070319.wav,j,c ,,,,,0,75,75,79,,,,,,,,,,,,,,,j,1,0.5695387470004789,,,104,001,2019_Mar_13_1555,test_run,3.0.6,60.00250666527716,
48,EFW,EFW_18_nummer_070319.wav,j,c ,,,,,0,76,76,47,,,,,,,,,,,,,,,j,1,0.7858068169989565,,,104,001,2019_Mar_13_1555,test_run,3.0.6,60.00250666527716,
71,EFW,EFW_41_infinna_070319.wav,j,c ,,,,,0,77,77,70,,,,,,,,,,,,,,,j,1,0.8698542999991332,,,104,001,2019_Mar_13_1555,test_run,3.0.6,60.00250666527716,
68,EFW,EFW_38_foerefoell_070319.wav,j,c ,,,,,0,78,78,67,,,,,,,,,,,,,,,j,1,1.0189085009988048,,,104,001,2019_Mar_13_1555,test_run,3.0.6,60.00250666527716,
89,EFW,EFW_59_filosofin_070319.wav,j,c ,,,,,0,79,79,88,,,,,,,,,,,,,,,j,1,0.7195165599987376,,,104,001,2019_Mar_13_1555,test_run,3.0.6,60.00250666527716,
76,EFW,EFW_46_foerhoer_070319.wav,j,c ,,,,,0,80,80,75,,,,,,,,,,,,,,,j,1,0.8356512699974701,,,104,001,2019_Mar_13_1555,test_run,3.0.6,60.00250666527716,
165,ENW,ENW_75_foarskining_150219.wav,n,c ,,,,,0,81,81,164,,,,,,,,,,,,,,,n,1,0.9195909090012719,,,104,001,2019_Mar_13_1555,test_run,3.0.6,60.00250666527716,
173,ENW,ENW_83_fyrskovar_150219.wav,n,c ,,,,,0,82,82,172,,,,,,,,,,,,,,,n,1,0.9030308940018585,,,104,001,2019_Mar_13_1555,test_run,3.0.6,60.00250666527716,
138,ENW,ENW_48_skyjamsen_150219.wav,n,c ,,,,,0,83,83,137,,,,,,,,,,,,,,,n,1,0.9694868959995802,,,104,001,2019_Mar_13_1555,test_run,3.0.6,60.00250666527716,
177,ENW,ENW_87_kloavare_150219.wav,n,c ,,,,,0,84,84,176,,,,,,,,,,,,,,,n,1,0.6359424039983423,,,104,001,2019_Mar_13_1555,test_run,3.0.6,60.00250666527716,
15,ECW,ECW_15_tjuvarna_070319.wav,j,c ,,,,,0,85,85,14,,,,,,,,,,,,,,,j,1,0.6195096590017783,,,104,001,2019_Mar_13_1555,test_run,3.0.6,60.00250666527716,
156,ENW,ENW_66_voarsmenar_150219.wav,n,c ,,,,,0,86,86,155,,,,,,,,,,,,,,,n,1,0.6523008010008198,,,104,001,2019_Mar_13_1555,test_run,3.0.6,60.00250666527716,
136,ENW,ENW_46_pommera_150219.wav,n,c ,,,,,0,87,87,135,,,,,,,,,,,,,,,n,1,0.5026050660017063,,,104,001,2019_Mar_13_1555,test_run,3.0.6,60.00250666527716,
47,EFW,EFW_17_januari_070319.wav,j,c ,,,,,0,88,88,46,,,,,,,,,,,,,,,j,1,0.3855207390006399,,,104,001,2019_Mar_13_1555,test_run,3.0.6,60.00250666527716,
163,ENW,ENW_73_vimmankalla_150219.wav,n,c ,,,,,0,89,89,162,,,,,,,,,,,,,,,n,1,0.6187471550001646,,,104,001,2019_Mar_13_1555,test_run,3.0.6,60.00250666527716,
128,ENW,ENW_38_roakanier_150219.wav,n,c ,,,,,0,90,90,127,,,,,,,,,,,,,,,n,1,0.5856389709988434,,,104,001,2019_Mar_13_1555,test_run,3.0.6,60.00250666527716,
31,EFW,EFW_1_allmaan_070319.wav,j,c ,,,,,0,91,91,30,,,,,,,,,,,,,,,j,1,0.5532238259984297,,,104,001,2019_Mar_13_1555,test_run,3.0.6,60.00250666527716,
175,ENW,ENW_85_forlinna_150219.wav,n,c ,,,,,0,92,92,174,,,,,,,,,,,,,,,n,1,0.6689531310003076,,,104,001,2019_Mar_13_1555,test_run,3.0.6,60.00250666527716,
55,EFW,EFW_25_informera_070319.wav,j,c ,,,,,0,93,93,54,,,,,,,,,,,,,,,j,1,0.48593830000027083,,,104,001,2019_Mar_13_1555,test_run,3.0.6,60.00250666527716,
29,ECW,ECW_29_mejerier_070319.wav,j,c ,,,,,0,94,94,28,,,,,,,,,,,,,,,j,1,0.4363836860029551,,,104,001,2019_Mar_13_1555,test_run,3.0.6,60.00250666527716,
167,ENW,ENW_77_somfera_150219.wav,n,c ,,,,,0,95,95,166,,,,,,,,,,,,,,,n,1,0.7855183179999585,,,104,001,2019_Mar_13_1555,test_run,3.0.6,60.00250666527716,
124,ENW,ENW_34_jomera_150219.wav,n,c ,,,,,0,96,96,123,,,,,,,,,,,,,,,n,1,0.752749456998572,,,104,001,2019_Mar_13_1555,test_run,3.0.6,60.00250666527716,
24,ECW,ECW_24_fysiker_070319.wav,j,c ,,,,,0,97,97,23,,,,,,,,,,,,,,,j,1,1.035908860998461,,,104,001,2019_Mar_13_1555,test_run,3.0.6,60.00250666527716,
72,EFW,EFW_42_naavaron_070319.wav,j,c ,,,,,0,98,98,71,,,,,,,,,,,,,,,j,1,0.6004350700022769,,,104,001,2019_Mar_13_1555,test_run,3.0.6,60.00250666527716,
137,ENW,ENW_47_oafläppen_150219.wav,n,c ,,,,,0,99,99,136,,,,,,,,,,,,,,,n,1,0.6189803870001924,,,104,001,2019_Mar_13_1555,test_run,3.0.6,60.00250666527716,
134,ENW,ENW_44_inlivna_150219.wav,n,c ,,,,,0,100,100,133,,,,,,,,,,,,,,,n,1,0.5527713199990103,,,104,001,2019_Mar_13_1555,test_run,3.0.6,60.00250666527716,
83,EFW,EFW_53_sovrum_070319.wav,j,c ,,,,,0,101,101,82,,,,,,,,,,,,,,,n,0,1.4503844840000966,,,104,001,2019_Mar_13_1555,test_run,3.0.6,60.00250666527716,
45,EFW,EFW_15_oeverens_070319.wav,j,c ,,,,,0,102,102,44,,,,,,,,,,,,,,,j,1,0.8193793259997619,,,104,001,2019_Mar_13_1555,test_run,3.0.6,60.00250666527716,
43,EFW,EFW_13_elever_070319.wav,j,c ,,,,,0,103,103,42,,,,,,,,,,,,,,,j,1,5.7526205079993815,,,104,001,2019_Mar_13_1555,test_run,3.0.6,60.00250666527716,
70,EFW,EFW_40_miljoner_070319.wav,j,c ,,,,,0,104,104,69,,,,,,,,,,,,,,,j,1,0.9362094200005231,,,104,001,2019_Mar_13_1555,test_run,3.0.6,60.00250666527716,
130,ENW,ENW_40_knipackar_150219.wav,n,c ,,,,,0,105,105,129,,,,,,,,,,,,,,,n,1,0.702135283001553,,,104,001,2019_Mar_13_1555,test_run,3.0.6,60.00250666527716,
41,EFW,EFW_11_maanniskor_070319.wav,j,c ,,,,,0,106,106,40,,,,,,,,,,,,,,,j,1,0.9532614809977531,,,104,001,2019_Mar_13_1555,test_run,3.0.6,60.00250666527716,
127,ENW,ENW_37_spallrivet_150219.wav,n,c ,,,,,0,107,107,126,,,,,,,,,,,,,,,n,1,0.618944208999892,,,104,001,2019_Mar_13_1555,test_run,3.0.6,60.00250666527716,
145,ENW,ENW_55_invaskin_150219.wav,n,c ,,,,,0,108,108,144,,,,,,,,,,,,,,,n,1,2.4194318109985034,,,104,001,2019_Mar_13_1555,test_run,3.0.6,60.00250666527716,
172,ENW,ENW_82_värskappa_150219.wav,n,c ,,,,,0,109,109,171,,,,,,,,,,,,,,,n,1,2.78606652900271,,,104,001,2019_Mar_13_1555,test_run,3.0.6,60.00250666527716,
178,ENW,ENW_88_marsifen_150219.wav,n,c ,,,,,0,110,110,177,,,,,,,,,,,,,,,n,1,0.45240249400012544,,,104,001,2019_Mar_13_1555,test_run,3.0.6,60.00250666527716,
21,ECW,ECW_21_husera_070319.wav,j,c ,,,,,0,111,111,20,,,,,,,,,,,,,,,j,1,2.102067892999912,,,104,001,2019_Mar_13_1555,test_run,3.0.6,60.00250666527716,
113,ENW,ENW_23_allsänning_150219.wav,n,c ,,,,,0,112,112,112,,,,,,,,,,,,,,,n,1,1.4192559940020146,,,104,001,2019_Mar_13_1555,test_run,3.0.6,60.00250666527716,
119,ENW,ENW_29_uppskira_150219.wav,n,c ,,,,,0,113,113,118,,,,,,,,,,,,,,,n,1,0.7361458099985612,,,104,001,2019_Mar_13_1555,test_run,3.0.6,60.00250666527716,
140,ENW,ENW_50_omsänare_150219.wav,n,c ,,,,,0,114,114,139,,,,,,,,,,,,,,,n,1,0.8196914679974725,,,104,001,2019_Mar_13_1555,test_run,3.0.6,60.00250666527716,
94,ENW,ENW_4_kyllfaren_150219.wav,n,c ,,,,,0,115,115,93,,,,,,,,,,,,,,,n,1,1.0528322310019576,,,104,001,2019_Mar_13_1555,test_run,3.0.6,60.00250666527716,
74,EFW,EFW_44_ljusa_070319.wav,j,c ,,,,,0,116,116,73,,,,,,,,,,,,,,,j,1,0.6023780870018527,,,104,001,2019_Mar_13_1555,test_run,3.0.6,60.00250666527716,
2,ECW,ECW_2_hinna_070319.wav,j,c ,,,,,0,117,117,1,,,,,,,,,,,,,,,j,1,1.0192038499990304,,,104,001,2019_Mar_13_1555,test_run,3.0.6,60.00250666527716,
66,EFW,EFW_36_haarifroan_070319.wav,j,c ,,,,,0,118,118,65,,,,,,,,,,,,,,,j,1,0.5023041450003802,,,104,001,2019_Mar_13_1555,test_run,3.0.6,60.00250666527716,
168,ENW,ENW_78_morvinder_150219.wav,n,c ,,,,,0,119,119,167,,,,,,,,,,,,,,,n,1,0.5031760479978402,,,104,001,2019_Mar_13_1555,test_run,3.0.6,60.00250666527716,
132,ENW,ENW_42_hamsforing_150219.wav,n,c ,,,,,0,120,120,131,,,,,,,,,,,,,,,n,1,1.2024352079970413,,,104,001,2019_Mar_13_1555,test_run,3.0.6,60.00250666527716,
60,EFW,EFW_30_officiella_070319.wav,j,c ,,,,,0,121,121,59,,,,,,,,,,,,,,,j,1,0.5694323480020103,,,104,001,2019_Mar_13_1555,test_run,3.0.6,60.00250666527716,
112,ENW,ENW_22_fjäserna_150219.wav,n,c ,,,,,0,122,122,111,,,,,,,,,,,,,,,n,1,1.4192413070013572,,,104,001,2019_Mar_13_1555,test_run,3.0.6,60.00250666527716,
152,ENW,ENW_62_ljullepilja_150219.wav,n,c ,,,,,0,123,123,151,,,,,,,,,,,,,,,n,1,0.9690381959990191,,,104,001,2019_Mar_13_1555,test_run,3.0.6,60.00250666527716,
91,ENW,ENW_1_norsimerar_150219.wav,n,c ,,,,,0,124,124,90,,,,,,,,,,,,,,,n,1,0.4691590099973837,,,104,001,2019_Mar_13_1555,test_run,3.0.6,60.00250666527716,
100,ENW,ENW_10_skinnamer_150219.wav,n,c ,,,,,0,125,125,99,,,,,,,,,,,,,,,n,1,1.2860080909995304,,,104,001,2019_Mar_13_1555,test_run,3.0.6,60.00250666527716,
40,EFW,EFW_10_laarare_070319.wav,j,c ,,,,,0,126,126,39,,,,,,,,,,,,,,,j,1,0.53656792199763,,,104,001,2019_Mar_13_1555,test_run,3.0.6,60.00250666527716,
17,ECW,ECW_17_majonnaas_070319.wav,j,c ,,,,,0,127,127,16,,,,,,,,,,,,,,,j,1,0.5863911619999271,,,104,001,2019_Mar_13_1555,test_run,3.0.6,60.00250666527716,
33,EFW,EFW_3_familjen_070319.wav,j,c ,,,,,0,128,128,32,,,,,,,,,,,,,,,j,1,0.3858057170000393,,,104,001,2019_Mar_13_1555,test_run,3.0.6,60.00250666527716,
146,ENW,ENW_56_lysskarna_150219.wav,n,c ,,,,,0,129,129,145,,,,,,,,,,,,,,,n,1,0.8195085449988255,,,104,001,2019_Mar_13_1555,test_run,3.0.6,60.00250666527716,
157,ENW,ENW_67_oafreskar_150219.wav,n,c ,,,,,0,130,130,156,,,,,,,,,,,,,,,n,1,0.8356210439997085,,,104,001,2019_Mar_13_1555,test_run,3.0.6,60.00250666527716,
62,EFW,EFW_32_fyller_070319.wav,j,c ,,,,,0,131,131,61,,,,,,,,,,,,,,,j,1,0.6189730500009318,,,104,001,2019_Mar_13_1555,test_run,3.0.6,60.00250666527716,
115,ENW,ENW_25_affierar_150219.wav,n,c ,,,,,0,132,132,114,,,,,,,,,,,,,,,n,1,0.783792184000049,,,104,001,2019_Mar_13_1555,test_run,3.0.6,60.00250666527716,
44,EFW,EFW_14_foersoeken_070319.wav,j,c ,,,,,0,133,133,43,,,,,,,,,,,,,,,j,1,1.3524211770018155,,,104,001,2019_Mar_13_1555,test_run,3.0.6,60.00250666527716,
102,ENW,ENW_12_snälmola_150219.wav,n,c ,,,,,0,134,134,101,,,,,,,,,,,,,,,n,1,0.6503706999974384,,,104,001,2019_Mar_13_1555,test_run,3.0.6,60.00250666527716,
65,EFW,EFW_35_affaarer_070319.wav,j,c ,,,,,0,135,135,64,,,,,,,,,,,,,,,j,1,0.285872674001439,,,104,001,2019_Mar_13_1555,test_run,3.0.6,60.00250666527716,
131,ENW,ENW_41_vessmaren_150219.wav,n,c ,,,,,0,136,136,130,,,,,,,,,,,,,,,n,1,0.3356860019994201,,,104,001,2019_Mar_13_1555,test_run,3.0.6,60.00250666527716,
109,ENW,ENW_19_morloren_150219.wav,n,c ,,,,,0,137,137,108,,,,,,,,,,,,,,,n,1,0.6524514189986803,,,104,001,2019_Mar_13_1555,test_run,3.0.6,60.00250666527716,
50,EFW,EFW_20_fenomen_070319.wav,j,c ,,,,,0,138,138,49,,,,,,,,,,,,,,,j,1,1.2527853030005645,,,104,001,2019_Mar_13_1555,test_run,3.0.6,60.00250666527716,
37,EFW,EFW_7_sociala_070319.wav,j,c ,,,,,0,139,139,36,,,,,,,,,,,,,,,j,1,1.318780659003096,,,104,001,2019_Mar_13_1555,test_run,3.0.6,60.00250666527716,
155,ENW,ENW_65_hamfylla_150219.wav,n,c ,,,,,0,140,140,154,,,,,,,,,,,,,,,n,1,0.6189538389990048,,,104,001,2019_Mar_13_1555,test_run,3.0.6,60.00250666527716,
154,ENW,ENW_64_havskvare_150219.wav,n,c ,,,,,0,141,141,153,,,,,,,,,,,,,,,n,1,0.15240828199966927,,,104,001,2019_Mar_13_1555,test_run,3.0.6,60.00250666527716,
30,ECW,ECW_30_recensioner_070319.wav,j,c ,,,,,0,142,142,29,,,,,,,,,,,,,,,j,1,0.3526881660000072,,,104,001,2019_Mar_13_1555,test_run,3.0.6,60.00250666527716,
11,ECW,ECW_11_foersoeka_070319.wav,j,c ,,,,,0,143,143,10,,,,,,,,,,,,,,,j,1,0.3692794810012856,,,104,001,2019_Mar_13_1555,test_run,3.0.6,60.00250666527716,
4,ECW,ECW_4_skraalla_070319.wav,j,c ,,,,,0,144,144,3,,,,,,,,,,,,,,,j,1,1.0023006099982013,,,104,001,2019_Mar_13_1555,test_run,3.0.6,60.00250666527716,
170,ENW,ENW_80_tjarfera_150219.wav,n,c ,,,,,0,145,145,169,,,,,,,,,,,,,,,n,1,0.3193343979983183,,,104,001,2019_Mar_13_1555,test_run,3.0.6,60.00250666527716,
129,ENW,ENW_39_ljusonar_150219.wav,n,c ,,,,,0,146,146,128,,,,,,,,,,,,,,,n,1,0.4859946520009544,,,104,001,2019_Mar_13_1555,test_run,3.0.6,60.00250666527716,
79,EFW,EFW_49_vaasen_070319.wav,j,c ,,,,,0,147,147,78,,,,,,,,,,,,,,,j,1,0.2524029699998209,,,104,001,2019_Mar_13_1555,test_run,3.0.6,60.00250666527716,
12,ECW,ECW_12_moehippa_070319.wav,j,c ,,,,,0,148,148,11,,,,,,,,,,,,,,,j,1,0.5195513170001504,,,104,001,2019_Mar_13_1555,test_run,3.0.6,60.00250666527716,
77,EFW,EFW_47_invoanare_070319.wav,j,c ,,,,,0,149,149,76,,,,,,,,,,,,,,,j,1,0.369076719001896,,,104,001,2019_Mar_13_1555,test_run,3.0.6,60.00250666527716,
104,ENW,ENW_14_kärmenor_150219.wav,n,c ,,,,,0,150,150,103,,,,,,,,,,,,,,,n,1,1.9365950699975656,,,104,001,2019_Mar_13_1555,test_run,3.0.6,60.00250666527716,
36,EFW,EFW_6_massa_070319.wav,j,c ,,,,,0,151,151,35,,,,,,,,,,,,,,,j,1,0.6690779489981651,,,104,001,2019_Mar_13_1555,test_run,3.0.6,60.00250666527716,
73,EFW,EFW_43_halvoar_070319.wav,j,c ,,,,,0,152,152,72,,,,,,,,,,,,,,,j,1,0.552694349000376,,,104,001,2019_Mar_13_1555,test_run,3.0.6,60.00250666527716,
151,ENW,ENW_61_myckskina_150219.wav,n,c ,,,,,0,153,153,150,,,,,,,,,,,,,,,n,1,0.5524177539991797,,,104,001,2019_Mar_13_1555,test_run,3.0.6,60.00250666527716,
108,ENW,ENW_18_moalursena_150219.wav,n,c ,,,,,0,154,154,107,,,,,,,,,,,,,,,n,1,0.8690132920019096,,,104,001,2019_Mar_13_1555,test_run,3.0.6,60.00250666527716,
158,ENW,ENW_68_presionar_150219.wav,n,c ,,,,,0,155,155,157,,,,,,,,,,,,,,,n,1,0.652507708997291,,,104,001,2019_Mar_13_1555,test_run,3.0.6,60.00250666527716,
139,ENW,ENW_49_hälskrena_150219.wav,n,c ,,,,,0,156,156,138,,,,,,,,,,,,,,,n,1,0.7028453220009396,,,104,001,2019_Mar_13_1555,test_run,3.0.6,60.00250666527716,
26,ECW,ECW_26_kroenikoeren_070319.wav,j,c ,,,,,0,157,157,25,,,,,,,,,,,,,,,j,1,0.5197154930028773,,,104,001,2019_Mar_13_1555,test_run,3.0.6,60.00250666527716,
53,EFW,EFW_23_aamne_070319.wav,j,c ,,,,,0,158,158,52,,,,,,,,,,,,,,,j,1,0.7189326669977163,,,104,001,2019_Mar_13_1555,test_run,3.0.6,60.00250666527716,
176,ENW,ENW_86_heloppsin_150219.wav,n,c ,,,,,0,159,159,175,,,,,,,,,,,,,,,n,1,0.5697243389986397,,,104,001,2019_Mar_13_1555,test_run,3.0.6,60.00250666527716,
117,ENW,ENW_27_lyssvinner_150219.wav,n,c ,,,,,0,160,160,116,,,,,,,,,,,,,,,n,1,0.5357227480017173,,,104,001,2019_Mar_13_1555,test_run,3.0.6,60.00250666527716,
86,EFW,EFW_56_mormor_070319.wav,j,c ,,,,,0,161,161,85,,,,,,,,,,,,,,,j,1,0.5688730729998497,,,104,001,2019_Mar_13_1555,test_run,3.0.6,60.00250666527716,
125,ENW,ENW_35_nymaljen_150219.wav,n,c ,,,,,0,162,162,124,,,,,,,,,,,,,,,n,1,0.9191076909992262,,,104,001,2019_Mar_13_1555,test_run,3.0.6,60.00250666527716,
57,EFW,EFW_27_analysera_070319.wav,j,c ,,,,,0,163,163,56,,,,,,,,,,,,,,,j,1,0.3695571719981672,,,104,001,2019_Mar_13_1555,test_run,3.0.6,60.00250666527716,
34,EFW,EFW_4_foerminska_070319.wav,j,c ,,,,,0,164,164,33,,,,,,,,,,,,,,,j,1,0.6023225730023114,,,104,001,2019_Mar_13_1555,test_run,3.0.6,60.00250666527716,
179,ENW,ENW_89_mikenspoan_150219.wav,n,c ,,,,,0,165,165,178,,,,,,,,,,,,,,,n,1,0.7863662300005672,,,104,001,2019_Mar_13_1555,test_run,3.0.6,60.00250666527716,
78,EFW,EFW_48_varifroan_070319.wav,j,c ,,,,,0,166,166,77,,,,,,,,,,,,,,,j,1,0.5694739930004289,,,104,001,2019_Mar_13_1555,test_run,3.0.6,60.00250666527716,
116,ENW,ENW_26_anufera_150219.wav,n,c ,,,,,0,167,167,115,,,,,,,,,,,,,,,n,1,0.5852137690017116,,,104,001,2019_Mar_13_1555,test_run,3.0.6,60.00250666527716,
111,ENW,ENW_21_tjulning_150219.wav,n,c ,,,,,0,168,168,110,,,,,,,,,,,,,,,j,0,0.38577667199933785,,,104,001,2019_Mar_13_1555,test_run,3.0.6,60.00250666527716,
160,ENW,ENW_70_roklarner_150219.wav,n,c ,,,,,0,169,169,159,,,,,,,,,,,,,,,n,1,0.5531825149992073,,,104,001,2019_Mar_13_1555,test_run,3.0.6,60.00250666527716,
69,EFW,EFW_39_foersvara_070319.wav,j,c ,,,,,0,170,170,68,,,,,,,,,,,,,,,j,1,0.7699950069982151,,,104,001,2019_Mar_13_1555,test_run,3.0.6,60.00250666527716,
159,ENW,ENW_69_mjohusa_150219.wav,n,c ,,,,,0,171,171,158,,,,,,,,,,,,,,,n,1,0.38563355700171087,,,104,001,2019_Mar_13_1555,test_run,3.0.6,60.00250666527716,
7,ECW,ECW_7_marin_070319.wav,j,c ,,,,,0,172,172,6,,,,,,,,,,,,,,,j,1,0.5365152359991043,,,104,001,2019_Mar_13_1555,test_run,3.0.6,60.00250666527716,
133,ENW,ENW_43_axalän_150219.wav,n,c ,,,,,0,173,173,132,,,,,,,,,,,,,,,n,1,0.9837135380003019,,,104,001,2019_Mar_13_1555,test_run,3.0.6,60.00250666527716,
144,ENW,ENW_54_lomering_150219.wav,n,c ,,,,,0,174,174,143,,,,,,,,,,,,,,,n,1,0.6692778010001348,,,104,001,2019_Mar_13_1555,test_run,3.0.6,60.00250666527716,
85,EFW,EFW_55_oroar_070319.wav,j,c ,,,,,0,175,175,84,,,,,,,,,,,,,,,j,1,1.1526516060002905,,,104,001,2019_Mar_13_1555,test_run,3.0.6,60.00250666527716,
142,ENW,ENW_52_filofyll_150219.wav,n,c ,,,,,0,176,176,141,,,,,,,,,,,,,,,n,1,1.5525564609997673,,,104,001,2019_Mar_13_1555,test_run,3.0.6,60.00250666527716,
103,ENW,ENW_13_forvaron_150219.wav,n,c ,,,,,0,177,177,102,,,,,,,,,,,,,,,n,1,0.6191313419985818,,,104,001,2019_Mar_13_1555,test_run,3.0.6,60.00250666527716,
56,EFW,EFW_26_armarna_070319.wav,j,c ,,,,,0,178,178,55,,,,,,,,,,,,,,,j,1,0.769813126000372,,,104,001,2019_Mar_13_1555,test_run,3.0.6,60.00250666527716,
107,ENW,ENW_17_kopynnor_150219.wav,n,c ,,,,,0,179,179,106,,,,,,,,,,,,,,,n,1,0.5863658359994588,,,104,001,2019_Mar_13_1555,test_run,3.0.6,60.00250666527716,
4,TTF,TTF_4_roet_070319.wav,,,1,rating_t_final.csv,t,final,,,,,0,0,0,0,0,0,0,1,0,0,0,3,,,,,,7,190.951,104,001,2019_Mar_13_1555,test_run,3.0.6,60.00250666527716,
11,TTF,TTF_11_svit_070319.wav,,,1,rating_t_final.csv,t,final,,,,,0,0,0,0,0,0,0,1,0,1,1,10,,,,,,7,4.071,104,001,2019_Mar_13_1555,test_run,3.0.6,60.00250666527716,
25,TDF,TDF_25_synd_070319.wav,,,1,rating_t_final.csv,t,final,,,,,0,0,0,0,0,0,0,1,0,2,2,24,,,,,,5,5.604,104,001,2019_Mar_13_1555,test_run,3.0.6,60.00250666527716,
15,TTF,TTF_15_not_070319.wav,,,1,rating_t_final.csv,t,final,,,,,0,0,0,0,0,0,0,1,0,3,3,14,,,,,,7,1.753,104,001,2019_Mar_13_1555,test_run,3.0.6,60.00250666527716,
9,TTF,TTF_9_bot_070319.wav,,,1,rating_t_final.csv,t,final,,,,,0,0,0,0,0,0,0,1,0,4,4,8,,,,,,5,12.537,104,001,2019_Mar_13_1555,test_run,3.0.6,60.00250666527716,
6,TTF,TTF_6_voart_070319.wav,,,1,rating_t_final.csv,t,final,,,,,0,0,0,0,0,0,0,1,0,5,5,5,,,,,,5,6.521,104,001,2019_Mar_13_1555,test_run,3.0.6,60.00250666527716,
3,TTF,TTF_3_raat_070319.wav,,,1,rating_t_final.csv,t,final,,,,,0,0,0,0,0,0,0,1,0,6,6,2,,,,,,7,3.171,104,001,2019_Mar_13_1555,test_run,3.0.6,60.00250666527716,
18,TDF,TDF_18_sjud_070319.wav,,,1,rating_t_final.csv,t,final,,,,,0,0,0,0,0,0,0,1,0,7,7,17,,,,,,4,3.954,104,001,2019_Mar_13_1555,test_run,3.0.6,60.00250666527716,
23,TDF,TDF_23_hud_070319.wav,,,1,rating_t_final.csv,t,final,,,,,0,0,0,0,0,0,0,1,0,8,8,22,,,,,,2,3.087,104,001,2019_Mar_13_1555,test_run,3.0.6,60.00250666527716,
20,TDF,TDF_20_god_070319.wav,,,1,rating_t_final.csv,t,final,,,,,0,0,0,0,0,0,0,1,0,9,9,19,,,,,,5,1.671,104,001,2019_Mar_13_1555,test_run,3.0.6,60.00250666527716,
24,TDF,TDF_24_smid_070319.wav,,,1,rating_t_final.csv,t,final,,,,,0,0,0,0,0,0,0,1,0,10,10,23,,,,,,1,1.487,104,001,2019_Mar_13_1555,test_run,3.0.6,60.00250666527716,
17,TDF,TDF_17_sked_070319.wav,,,1,rating_t_final.csv,t,final,,,,,0,0,0,0,0,0,0,1,0,11,11,16,,,,,,2,1.071,104,001,2019_Mar_13_1555,test_run,3.0.6,60.00250666527716,
21,TDF,TDF_21_ljod _070319.wav,,,1,rating_t_final.csv,t,final,,,,,0,0,0,0,0,0,0,1,0,12,12,20,,,,,,3,2.154,104,001,2019_Mar_13_1555,test_run,3.0.6,60.00250666527716,
32,TDF,TDF_32_hoard_070319.wav,,,1,rating_t_final.csv,t,final,,,,,0,0,0,0,0,0,0,1,0,13,13,31,,,,,,5,1.105,104,001,2019_Mar_13_1555,test_run,3.0.6,60.00250666527716,
13,TTF,TTF_13_gjut_070319.wav,,,1,rating_t_final.csv,t,final,,,,,0,0,0,0,0,0,0,1,0,14,14,12,,,,,,6,1.538,104,001,2019_Mar_13_1555,test_run,3.0.6,60.00250666527716,
26,TDF,TDF_26_rymd_070319.wav,,,1,rating_t_final.csv,t,final,,,,,0,0,0,0,0,0,0,1,0,15,15,25,,,,,,5,3.403,104,001,2019_Mar_13_1555,test_run,3.0.6,60.00250666527716,
27,TDF,TDF_27_sand_070319.wav,,,1,rating_t_final.csv,t,final,,,,,0,0,0,0,0,0,0,1,0,16,16,26,,,,,,7,1.303,104,001,2019_Mar_13_1555,test_run,3.0.6,60.00250666527716,
5,TTF,TTF_5_voat_070319.wav,,,1,rating_t_final.csv,t,final,,,,,0,0,0,0,0,0,0,1,0,17,17,4,,,,,,5,2.07,104,001,2019_Mar_13_1555,test_run,3.0.6,60.00250666527716,
14,TTF,TTF_14_mot_070319.wav,,,1,rating_t_final.csv,t,final,,,,,0,0,0,0,0,0,0,1,0,18,18,13,,,,,,7,3.403,104,001,2019_Mar_13_1555,test_run,3.0.6,60.00250666527716,
28,TDF,TDF_28_brand_070319.wav,,,1,rating_t_final.csv,t,final,,,,,0,0,0,0,0,0,0,1,0,19,19,27,,,,,,5,1.021,104,001,2019_Mar_13_1555,test_run,3.0.6,60.00250666527716,
19,TDF,TDF_19_sjod_070319.wav,,,1,rating_t_final.csv,t,final,,,,,0,0,0,0,0,0,0,1,0,20,20,18,,,,,,5,1.871,104,001,2019_Mar_13_1555,test_run,3.0.6,60.00250666527716,
1,TTF,TTF_1_rit_070319.wav,,,1,rating_t_final.csv,t,final,,,,,0,0,0,0,0,0,0,1,0,21,21,0,,,,,,7,0.77,104,001,2019_Mar_13_1555,test_run,3.0.6,60.00250666527716,
30,TDF,TDF_30_sladd_070319.wav,,,1,rating_t_final.csv,t,final,,,,,0,0,0,0,0,0,0,1,0,22,22,29,,,,,,1,1.054,104,001,2019_Mar_13_1555,test_run,3.0.6,60.00250666527716,
22,TDF,TDF_22_hed_070319.wav,,,1,rating_t_final.csv,t,final,,,,,0,0,0,0,0,0,0,1,0,23,23,21,,,,,,1,1.037,104,001,2019_Mar_13_1555,test_run,3.0.6,60.00250666527716,
7,TTF,TTF_7_vit_070319.wav,,,1,rating_t_final.csv,t,final,,,,,0,0,0,0,0,0,0,1,0,24,24,6,,,,,,7,0.954,104,001,2019_Mar_13_1555,test_run,3.0.6,60.00250666527716,
31,TDF,TDF_31_brodd_070319.wav,,,1,rating_t_final.csv,t,final,,,,,0,0,0,0,0,0,0,1,0,25,25,30,,,,,,5,1.104,104,001,2019_Mar_13_1555,test_run,3.0.6,60.00250666527716,
10,TTF,TTF_10_broet_070319.wav,,,1,rating_t_final.csv,t,final,,,,,0,0,0,0,0,0,0,1,0,26,26,9,,,,,,7,1.004,104,001,2019_Mar_13_1555,test_run,3.0.6,60.00250666527716,
8,TTF,TTF_8_noet_070319.wav,,,1,rating_t_final.csv,t,final,,,,,0,0,0,0,0,0,0,1,0,27,27,7,,,,,,7,1.271,104,001,2019_Mar_13_1555,test_run,3.0.6,60.00250666527716,
16,TTF,TTF_16_font_070319.wav,,,1,rating_t_final.csv,t,final,,,,,0,0,0,0,0,0,0,1,0,28,28,15,,,,,,7,1.003,104,001,2019_Mar_13_1555,test_run,3.0.6,60.00250666527716,
29,TDF,TDF_29_baadd_070319.wav,,,1,rating_t_final.csv,t,final,,,,,0,0,0,0,0,0,0,1,0,29,29,28,,,,,,7,0.804,104,001,2019_Mar_13_1555,test_run,3.0.6,60.00250666527716,
2,TTF,TTF_2_vet_070319.wav,,,1,rating_t_final.csv,t,final,,,,,0,0,0,0,0,0,0,1,0,30,30,1,,,,,,7,1.021,104,001,2019_Mar_13_1555,test_run,3.0.6,60.00250666527716,
12,TTF,TTF_12_smet_070319.wav,,,1,rating_t_final.csv,t,final,,,,,0,0,0,0,0,0,0,1,0,31,31,11,,,,,,7,0.568,104,001,2019_Mar_13_1555,test_run,3.0.6,60.00250666527716,
21,TTF,TTF_21_gjoet_070319.wav,,,1,rating_d_final.csv,d,final,,,,,0,0,0,0,0,1,1,0,0,0,0,20,,,,,,1,1.47,104,001,2019_Mar_13_1555,test_run,3.0.6,60.00250666527716,
24,TTF,TTF_24_smit_070319.wav,,,1,rating_d_final.csv,d,final,,,,,0,0,0,0,0,1,1,0,0,1,1,23,,,,,,2,0.487,104,001,2019_Mar_13_1555,test_run,3.0.6,60.00250666527716,
17,TTF,TTF_17_sket_070319.wav,,,1,rating_d_final.csv,d,final,,,,,0,0,0,0,0,1,1,0,0,2,2,16,,,,,,1,0.487,104,001,2019_Mar_13_1555,test_run,3.0.6,60.00250666527716,
8,TDF,TDF_8_nod_070319.wav,,,1,rating_d_final.csv,d,final,,,,,0,0,0,0,0,1,1,0,0,3,3,7,,,,,,5,1.902,104,001,2019_Mar_13_1555,test_run,3.0.6,60.00250666527716,
31,TTF,TTF_31_brott_070319.wav,,,1,rating_d_final.csv,d,final,,,,,0,0,0,0,0,1,1,0,0,4,4,30,,,,,,1,0.771,104,001,2019_Mar_13_1555,test_run,3.0.6,60.00250666527716,
3,TDF,TDF_3_raad_070319.wav,,,1,rating_d_final.csv,d,final,,,,,0,0,0,0,0,1,1,0,0,5,5,2,,,,,,3,3.754,104,001,2019_Mar_13_1555,test_run,3.0.6,60.00250666527716,
11,TDF,TDF_11_svid_070319.wav,,,1,rating_d_final.csv,d,final,,,,,0,0,0,0,0,1,1,0,0,6,6,10,,,,,,4,1.636,104,001,2019_Mar_13_1555,test_run,3.0.6,60.00250666527716,
16,TDF,TDF_16_fond_070319.wav,,,1,rating_d_final.csv,d,final,,,,,0,0,0,0,0,1,1,0,0,7,7,15,,,,,,6,1.104,104,001,2019_Mar_13_1555,test_run,3.0.6,60.00250666527716,
6,TDF,TDF_6_voard_070319.wav,,,1,rating_d_final.csv,d,final,,,,,0,0,0,0,0,1,1,0,0,8,8,5,,,,,,5,1.304,104,001,2019_Mar_13_1555,test_run,3.0.6,60.00250666527716,
29,TTF,TTF_29_bett_070319.wav,,,1,rating_d_final.csv,d,final,,,,,0,0,0,0,0,1,1,0,0,9,9,28,,,,,,1,0.654,104,001,2019_Mar_13_1555,test_run,3.0.6,60.00250666527716,
5,TDF,TDF_5_voad_070319.wav,,,1,rating_d_final.csv,d,final,,,,,0,0,0,0,0,1,1,0,0,10,10,4,,,,,,5,1.07,104,001,2019_Mar_13_1555,test_run,3.0.6,60.00250666527716,
9,TDF,TDF_9_bod_070319.wav,,,1,rating_d_final.csv,d,final,,,,,0,0,0,0,0,1,1,0,0,11,11,8,,,,,,2,2.07,104,001,2019_Mar_13_1555,test_run,3.0.6,60.00250666527716,
13,TDF,TDF_13_ljud_070319.wav,,,1,rating_d_final.csv,d,final,,,,,0,0,0,0,0,1,1,0,0,12,12,12,,,,,,4,0.986,104,001,2019_Mar_13_1555,test_run,3.0.6,60.00250666527716,
30,TTF,TTF_30_slatt_070319.wav,,,1,rating_d_final.csv,d,final,,,,,0,0,0,0,0,1,1,0,0,13,13,29,,,,,,1,1.086,104,001,2019_Mar_13_1555,test_run,3.0.6,60.00250666527716,
19,TTF,TTF_19_skoet_070319.wav,,,1,rating_d_final.csv,d,final,,,,,0,0,0,0,0,1,1,0,0,14,14,18,,,,,,1,1.488,104,001,2019_Mar_13_1555,test_run,3.0.6,60.00250666527716,
32,TTF,TTF_32_hoart_070319.wav,,,1,rating_d_final.csv,d,final,,,,,0,0,0,0,0,1,1,0,0,15,15,31,,,,,,1,1.22,104,001,2019_Mar_13_1555,test_run,3.0.6,60.00250666527716,
26,TTF,TTF_26_rymt_070319.wav,,,1,rating_d_final.csv,d,final,,,,,0,0,0,0,0,1,1,0,0,16,16,25,,,,,,1,1.138,104,001,2019_Mar_13_1555,test_run,3.0.6,60.00250666527716,
10,TDF,TDF_10_brod_070319.wav,,,1,rating_d_final.csv,d,final,,,,,0,0,0,0,0,1,1,0,0,17,17,9,,,,,,6,2.637,104,001,2019_Mar_13_1555,test_run,3.0.6,60.00250666527716,
4,TDF,TDF_4_rod_070319.wav,,,1,rating_d_final.csv,d,final,,,,,0,0,0,0,0,1,1,0,0,18,18,3,,,,,,6,1.205,104,001,2019_Mar_13_1555,test_run,3.0.6,60.00250666527716,
15,TDF,TDF_15_nod_070319.wav,,,1,rating_d_final.csv,d,final,,,,,0,0,0,0,0,1,1,0,0,19,19,14,,,,,,5,1.853,104,001,2019_Mar_13_1555,test_run,3.0.6,60.00250666527716,
7,TDF,TDF_7_vid_070319.wav,,,1,rating_d_final.csv,d,final,,,,,0,0,0,0,0,1,1,0,0,20,20,6,,,,,,2,1.604,104,001,2019_Mar_13_1555,test_run,3.0.6,60.00250666527716,
1,TDF,TDF_1_rid_070319.wav,,,1,rating_d_final.csv,d,final,,,,,0,0,0,0,0,1,1,0,0,21,21,0,,,,,,6,2.421,104,001,2019_Mar_13_1555,test_run,3.0.6,60.00250666527716,
22,TTF,TTF_22_het_070319.wav,,,1,rating_d_final.csv,d,final,,,,,0,0,0,0,0,1,1,0,0,22,22,21,,,,,,1,1.287,104,001,2019_Mar_13_1555,test_run,3.0.6,60.00250666527716,
25,TTF,TTF_25_synt_070319.wav,,,1,rating_d_final.csv,d,final,,,,,0,0,0,0,0,1,1,0,0,23,23,24,,,,,,1,1.17,104,001,2019_Mar_13_1555,test_run,3.0.6,60.00250666527716,
12,TDF,TDF_12_smed_070319.wav,,,1,rating_d_final.csv,d,final,,,,,0,0,0,0,0,1,1,0,0,24,24,11,,,,,,4,1.387,104,001,2019_Mar_13_1555,test_run,3.0.6,60.00250666527716,
23,TTF,TTF_23_hut_070319.wav,,,1,rating_d_final.csv,d,final,,,,,0,0,0,0,0,1,1,0,0,25,25,22,,,,,,2,0.837,104,001,2019_Mar_13_1555,test_run,3.0.6,60.00250666527716,
27,TTF,TTF_27_sant_070319.wav,,,1,rating_d_final.csv,d,final,,,,,0,0,0,0,0,1,1,0,0,26,26,26,,,,,,1,1.221,104,001,2019_Mar_13_1555,test_run,3.0.6,60.00250666527716,
20,TTF,TTF_20_got_070319.wav,,,1,rating_d_final.csv,d,final,,,,,0,0,0,0,0,1,1,0,0,27,27,19,,,,,,1,0.82,104,001,2019_Mar_13_1555,test_run,3.0.6,60.00250666527716,
2,TDF,TDF_2_ved_070319.wav,,,1,rating_d_final.csv,d,final,,,,,0,0,0,0,0,1,1,0,0,28,28,1,,,,,,6,0.754,104,001,2019_Mar_13_1555,test_run,3.0.6,60.00250666527716,
28,TTF,TTF_28_brant_070319.wav,,,1,rating_d_final.csv,d,final,,,,,0,0,0,0,0,1,1,0,0,29,29,27,,,,,,1,1.087,104,001,2019_Mar_13_1555,test_run,3.0.6,60.00250666527716,
14,TDF,TDF_14_mod_070319.wav,,,1,rating_d_final.csv,d,final,,,,,0,0,0,0,0,1,1,0,0,30,30,13,,,,,,5,1.471,104,001,2019_Mar_13_1555,test_run,3.0.6,60.00250666527716,
18,TTF,TTF_18_skjut_070319.wav,,,1,rating_d_final.csv,d,final,,,,,0,0,0,0,0,1,1,0,0,31,31,17,,,,,,3,1.121,104,001,2019_Mar_13_1555,test_run,3.0.6,60.00250666527716,
1,TTI,TTI_1_tag_150219.wav,,,2,rating_t_initial.csv,t,initial,,,,,0,1,1,1,0,0,0,1,0,0,0,0,,,,,,5,3.004,104,001,2019_Mar_13_1555,test_run,3.0.6,60.00250666527716,
22,TDI,TDI_22_dy_150219.wav,,,2,rating_t_initial.csv,t,initial,,,,,0,1,1,1,0,0,0,1,0,1,1,21,,,,,,1,1.838,104,001,2019_Mar_13_1555,test_run,3.0.6,60.00250666527716,
24,TDI,TDI_24_daack_150219.wav,,,2,rating_t_initial.csv,t,initial,,,,,0,1,1,1,0,0,0,1,0,2,2,23,,,,,,1,1.237,104,001,2019_Mar_13_1555,test_run,3.0.6,60.00250666527716,
6,TTI,TTI_6_teg_150219.wav,,,2,rating_t_initial.csv,t,initial,,,,,0,1,1,1,0,0,0,1,0,3,3,5,,,,,,4,1.404,104,001,2019_Mar_13_1555,test_run,3.0.6,60.00250666527716,
10,TTI,TTI_10_titt_150219.wav,,,2,rating_t_initial.csv,t,initial,,,,,0,1,1,1,0,0,0,1,0,4,4,9,,,,,,6,1.637,104,001,2019_Mar_13_1555,test_run,3.0.6,60.00250666527716,
27,TDI,TDI_27_doem_edit_150219.wav,,,2,rating_t_initial.csv,t,initial,,,,,0,1,1,1,0,0,0,1,0,5,5,26,,,,,,1,1.137,104,001,2019_Mar_13_1555,test_run,3.0.6,60.00250666527716,
18,TDI,TDI_18_dum_150219.wav,,,2,rating_t_initial.csv,t,initial,,,,,0,1,1,1,0,0,0,1,0,6,6,17,,,,,,1,4.254,104,001,2019_Mar_13_1555,test_run,3.0.6,60.00250666527716,
3,TTI,TTI_3_tal_150219.wav,,,2,rating_t_initial.csv,t,initial,,,,,0,1,1,1,0,0,0,1,0,7,7,2,,,,,,7,1.421,104,001,2019_Mar_13_1555,test_run,3.0.6,60.00250666527716,
5,TTI,TTI_5_tass_150219.wav,,,2,rating_t_initial.csv,t,initial,,,,,0,1,1,1,0,0,0,1,0,8,8,4,,,,,,6,2.07,104,001,2019_Mar_13_1555,test_run,3.0.6,60.00250666527716,
25,TDI,TDI_25_daar_150219.wav,,,2,rating_t_initial.csv,t,initial,,,,,0,1,1,1,0,0,0,1,0,9,9,24,,,,,,1,1.321,104,001,2019_Mar_13_1555,test_run,3.0.6,60.00250666527716,
26,TDI,TDI_26_doe_150219.wav,,,2,rating_t_initial.csv,t,initial,,,,,0,1,1,1,0,0,0,1,0,10,10,25,,,,,,1,1.071,104,001,2019_Mar_13_1555,test_run,3.0.6,60.00250666527716,
8,TTI,TTI_8_tia_150219.wav,,,2,rating_t_initial.csv,t,initial,,,,,0,1,1,1,0,0,0,1,0,11,11,7,,,,,,7,0.971,104,001,2019_Mar_13_1555,test_run,3.0.6,60.00250666527716,
12,TTI,TTI_12_toa_150219.wav,,,2,rating_t_initial.csv,t,initial,,,,,0,1,1,1,0,0,0,1,0,12,12,11,,,,,,6,1.653,104,001,2019_Mar_13_1555,test_run,3.0.6,60.00250666527716,
2,TTI,TTI_2_tagg_150219.wav,,,2,rating_t_initial.csv,t,initial,,,,,0,1,1,1,0,0,0,1,0,13,13,1,,,,,,6,1.238,104,001,2019_Mar_13_1555,test_run,3.0.6,60.00250666527716,
14,TTI,TTI_14_tok_150219.wav,,,2,rating_t_initial.csv,t,initial,,,,,0,1,1,1,0,0,0,1,0,14,14,13,,,,,,7,1.371,104,001,2019_Mar_13_1555,test_run,3.0.6,60.00250666527716,
20,TDI,TDI_20_dur_150219.wav,,,2,rating_t_initial.csv,t,initial,,,,,0,1,1,1,0,0,0,1,0,15,15,19,,,,,,1,1.005,104,001,2019_Mar_13_1555,test_run,3.0.6,60.00250666527716,
13,TTI,TTI_13_tog_150219.wav,,,2,rating_t_initial.csv,t,initial,,,,,0,1,1,1,0,0,0,1,0,16,16,12,,,,,,4,2.004,104,001,2019_Mar_13_1555,test_run,3.0.6,60.00250666527716,
19,TDI,TDI_19_dun_150219.wav,,,2,rating_t_initial.csv,t,initial,,,,,0,1,1,1,0,0,0,1,0,17,17,18,,,,,,1,1.854,104,001,2019_Mar_13_1555,test_run,3.0.6,60.00250666527716,
17,TDI,TDI_17_dopp_150219.wav,,,2,rating_t_initial.csv,t,initial,,,,,0,1,1,1,0,0,0,1,0,18,18,16,,,,,,1,1.088,104,001,2019_Mar_13_1555,test_run,3.0.6,60.00250666527716,
16,TDI,TDI_16_don_150219.wav,,,2,rating_t_initial.csv,t,initial,,,,,0,1,1,1,0,0,0,1,0,19,19,15,,,,,,1,1.237,104,001,2019_Mar_13_1555,test_run,3.0.6,60.00250666527716,
15,TDI,TDI_15_dom_150219.wav,,,2,rating_t_initial.csv,t,initial,,,,,0,1,1,1,0,0,0,1,0,20,20,14,,,,,,1,1.02,104,001,2019_Mar_13_1555,test_run,3.0.6,60.00250666527716,
7,TTI,TTI_7_tenn_150219.wav,,,2,rating_t_initial.csv,t,initial,,,,,0,1,1,1,0,0,0,1,0,21,21,6,,,,,,6,1.07,104,001,2019_Mar_13_1555,test_run,3.0.6,60.00250666527716,
21,TDI,TDI_21_dugg_150219.wav,,,2,rating_t_initial.csv,t,initial,,,,,0,1,1,1,0,0,0,1,0,22,22,20,,,,,,2,3.838,104,001,2019_Mar_13_1555,test_run,3.0.6,60.00250666527716,
9,TTI,TTI_9_till_150219.wav,,,2,rating_t_initial.csv,t,initial,,,,,0,1,1,1,0,0,0,1,0,23,23,8,,,,,,7,1.588,104,001,2019_Mar_13_1555,test_run,3.0.6,60.00250666527716,
23,TDI,TDI_23_doa_150219.wav,,,2,rating_t_initial.csv,t,initial,,,,,0,1,1,1,0,0,0,1,0,24,24,22,,,,,,2,3.037,104,001,2019_Mar_13_1555,test_run,3.0.6,60.00250666527716,
4,TTI,TTI_4_tam_150219.wav,,,2,rating_t_initial.csv,t,initial,,,,,0,1,1,1,0,0,0,1,0,25,25,3,,,,,,7,0.954,104,001,2019_Mar_13_1555,test_run,3.0.6,60.00250666527716,
11,TTI,TTI_11_tipp_150219.wav,,,2,rating_t_initial.csv,t,initial,,,,,0,1,1,1,0,0,0,1,0,26,26,10,,,,,,7,0.919,104,001,2019_Mar_13_1555,test_run,3.0.6,60.00250666527716,
16,TTI,TTI_16_ton_150219.wav,,,2,rating_d_initial.csv,d,initial,,,,,0,1,1,1,0,1,1,0,0,0,0,15,,,,,,1,1.103,104,001,2019_Mar_13_1555,test_run,3.0.6,60.00250666527716,
18,TTI,TTI_18_tum_150219.wav,,,2,rating_d_initial.csv,d,initial,,,,,0,1,1,1,0,1,1,0,0,1,1,17,,,,,,1,0.904,104,001,2019_Mar_13_1555,test_run,3.0.6,60.00250666527716,
19,TTI,TTI_19_tun_150219.wav,,,2,rating_d_initial.csv,d,initial,,,,,0,1,1,1,0,1,1,0,0,2,2,18,,,,,,1,1.288,104,001,2019_Mar_13_1555,test_run,3.0.6,60.00250666527716,
22,TTI,TTI_22_ty_150219.wav,,,2,rating_d_initial.csv,d,initial,,,,,0,1,1,1,0,1,1,0,0,3,3,21,,,,,,2,1.77,104,001,2019_Mar_13_1555,test_run,3.0.6,60.00250666527716,
21,TTI,TTI_21_tugg_150219.wav,,,2,rating_d_initial.csv,d,initial,,,,,0,1,1,1,0,1,1,0,0,4,4,20,,,,,,1,1.17,104,001,2019_Mar_13_1555,test_run,3.0.6,60.00250666527716,
6,TDI,TDI_6_deg_150219.wav,,,2,rating_d_initial.csv,d,initial,,,,,0,1,1,1,0,1,1,0,0,5,5,5,,,,,,6,1.604,104,001,2019_Mar_13_1555,test_run,3.0.6,60.00250666527716,
11,TDI,TDI_11_dipp_150219.wav,,,2,rating_d_initial.csv,d,initial,,,,,0,1,1,1,0,1,1,0,0,6,6,10,,,,,,7,1.154,104,001,2019_Mar_13_1555,test_run,3.0.6,60.00250666527716,
10,TDI,TDI_10_ditt_150219.wav,,,2,rating_d_initial.csv,d,initial,,,,,0,1,1,1,0,1,1,0,0,7,7,9,,,,,,6,1.321,104,001,2019_Mar_13_1555,test_run,3.0.6,60.00250666527716,
2,TDI,TDI_2_dagg_150219.wav,,,2,rating_d_initial.csv,d,initial,,,,,0,1,1,1,0,1,1,0,0,8,8,1,,,,,,7,1.17,104,001,2019_Mar_13_1555,test_run,3.0.6,60.00250666527716,
27,TTI,TTI_27_toem_150219.wav,,,2,rating_d_initial.csv,d,initial,,,,,0,1,1,1,0,1,1,0,0,9,9,26,,,,,,2,1.02,104,001,2019_Mar_13_1555,test_run,3.0.6,60.00250666527716,
25,TTI,TTI_25_taar_150219.wav,,,2,rating_d_initial.csv,d,initial,,,,,0,1,1,1,0,1,1,0,0,10,10,24,,,,,,2,1.254,104,001,2019_Mar_13_1555,test_run,3.0.6,60.00250666527716,
14,TDI,TDI_14_dok_150219.wav,,,2,rating_d_initial.csv,d,initial,,,,,0,1,1,1,0,1,1,0,0,11,11,13,,,,,,5,1.021,104,001,2019_Mar_13_1555,test_run,3.0.6,60.00250666527716,
24,TTI,TTI_24_taack_150219.wav,,,2,rating_d_initial.csv,d,initial,,,,,0,1,1,1,0,1,1,0,0,12,12,23,,,,,,1,1.454,104,001,2019_Mar_13_1555,test_run,3.0.6,60.00250666527716,
5,TDI,TDI_5_dass_150219.wav,,,2,rating_d_initial.csv,d,initial,,,,,0,1,1,1,0,1,1,0,0,13,13,4,,,,,,7,1.137,104,001,2019_Mar_13_1555,test_run,3.0.6,60.00250666527716,
13,TDI,TDI_13_dog_150219.wav,,,2,rating_d_initial.csv,d,initial,,,,,0,1,1,1,0,1,1,0,0,14,14,12,,,,,,5,1.471,104,001,2019_Mar_13_1555,test_run,3.0.6,60.00250666527716,
1,TDI,TDI_1_dag_150219.wav,,,2,rating_d_initial.csv,d,initial,,,,,0,1,1,1,0,1,1,0,0,15,15,0,,,,,,7,1.504,104,001,2019_Mar_13_1555,test_run,3.0.6,60.00250666527716,
4,TDI,TDI_4_dam_150219.wav,,,2,rating_d_initial.csv,d,initial,,,,,0,1,1,1,0,1,1,0,0,16,16,3,,,,,,7,0.953,104,001,2019_Mar_13_1555,test_run,3.0.6,60.00250666527716,
12,TDI,TDI_12_doa_150219.wav,,,2,rating_d_initial.csv,d,initial,,,,,0,1,1,1,0,1,1,0,0,17,17,11,,,,,,5,0.988,104,001,2019_Mar_13_1555,test_run,3.0.6,60.00250666527716,
9,TDI,TDI_9_dill_150219.wav,,,2,rating_d_initial.csv,d,initial,,,,,0,1,1,1,0,1,1,0,0,18,18,8,,,,,,7,0.971,104,001,2019_Mar_13_1555,test_run,3.0.6,60.00250666527716,
7,TDI,TDI_7_den_150219.wav,,,2,rating_d_initial.csv,d,initial,,,,,0,1,1,1,0,1,1,0,0,19,19,6,,,,,,7,0.988,104,001,2019_Mar_13_1555,test_run,3.0.6,60.00250666527716,
17,TTI,TTI_17_topp_150219.wav,,,2,rating_d_initial.csv,d,initial,,,,,0,1,1,1,0,1,1,0,0,20,20,16,,,,,,1,1.254,104,001,2019_Mar_13_1555,test_run,3.0.6,60.00250666527716,
20,TTI,TTI_20_tur_150219.wav,,,2,rating_d_initial.csv,d,initial,,,,,0,1,1,1,0,1,1,0,0,21,21,19,,,,,,1,0.97,104,001,2019_Mar_13_1555,test_run,3.0.6,60.00250666527716,
26,TTI,TTI_26_toe_150219.wav,,,2,rating_d_initial.csv,d,initial,,,,,0,1,1,1,0,1,1,0,0,22,22,25,,,,,,1,1.121,104,001,2019_Mar_13_1555,test_run,3.0.6,60.00250666527716,
3,TDI,TDI_3_dal_150219.wav,,,2,rating_d_initial.csv,d,initial,,,,,0,1,1,1,0,1,1,0,0,23,23,2,,,,,,6,1.671,104,001,2019_Mar_13_1555,test_run,3.0.6,60.00250666527716,
15,TTI,TTI_15_tom_150219.wav,,,2,rating_d_initial.csv,d,initial,,,,,0,1,1,1,0,1,1,0,0,24,24,14,,,,,,1,0.87,104,001,2019_Mar_13_1555,test_run,3.0.6,60.00250666527716,
23,TTI,TTI_23_toa_150219.wav,,,2,rating_d_initial.csv,d,initial,,,,,0,1,1,1,0,1,1,0,0,25,25,22,,,,,,1,0.621,104,001,2019_Mar_13_1555,test_run,3.0.6,60.00250666527716,
8,TDI,TDI_8_dia_150219.wav,,,2,rating_d_initial.csv,d,initial,,,,,0,1,1,1,0,1,1,0,0,26,26,7,,,,,,6,1.887,104,001,2019_Mar_13_1555,test_run,3.0.6,60.00250666527716,
