item,item_cond,sound,corr_ans,group,block_id,listname,rating_for,position,trials.thisRepN,trials.thisTrialN,trials.thisN,trials.thisIndex,run_block_type.thisRepN,run_block_type.thisTrialN,run_block_type.thisN,run_block_type.thisIndex,routine.thisRepN,routine.thisTrialN,routine.thisN,routine.thisIndex,rating_trials.thisRepN,rating_trials.thisTrialN,rating_trials.thisN,rating_trials.thisIndex,key_resp_1.keys,key_resp_1.rt,key_resp_2.keys,key_resp_2.corr,key_resp_2.rt,rating_1.response,rating_1.rt,participant,session,date,expName,psychopyVersion,frameRate,
,,,,,,,,,,,,,,,,,,,,,,,,,return,21.019200798000384,,,,,,105,001,2019_Mar_14_0933,test_run,3.0.6,60.006175236060336,
126,ENW,ENW_36_skymlosa_150219.wav,n,t,,,,,0,0,0,125,,,,,,,,,,,,,,,n,1,2.703768563998892,,,105,001,2019_Mar_14_0933,test_run,3.0.6,60.006175236060336,
14,ETW,ETW_14_myriad_070319.wav,j,t,,,,,0,1,1,13,,,,,,,,,,,,,,,n,0,1.5353948299998592,,,105,001,2019_Mar_14_0933,test_run,3.0.6,60.006175236060336,
85,EFW,EFW_55_oroar_070319.wav,j,t,,,,,0,2,2,84,,,,,,,,,,,,,,,j,1,0.2004965699998138,,,105,001,2019_Mar_14_0933,test_run,3.0.6,60.006175236060336,
114,ENW,ENW_24_samjoner_150219.wav,n,t,,,,,0,3,3,113,,,,,,,,,,,,,,,n,1,0.16895562699937727,,,105,001,2019_Mar_14_0933,test_run,3.0.6,60.006175236060336,
167,ENW,ENW_77_somfera_150219.wav,n,t,,,,,0,4,4,166,,,,,,,,,,,,,,,n,1,1.2354879189988424,,,105,001,2019_Mar_14_0933,test_run,3.0.6,60.006175236060336,
118,ENW,ENW_28_läkermask_150219.wav,n,t,,,,,0,5,5,117,,,,,,,,,,,,,,,j,0,3.1196939510009543,,,105,001,2019_Mar_14_0933,test_run,3.0.6,60.006175236060336,
142,ENW,ENW_52_filofyll_150219.wav,n,t,,,,,0,6,6,141,,,,,,,,,,,,,,,n,1,3.0192400050000288,,,105,001,2019_Mar_14_0933,test_run,3.0.6,60.006175236060336,
121,ENW,ENW_31_romation_150219.wav,n,t,,,,,0,7,7,120,,,,,,,,,,,,,,,j,0,0.8192225969978608,,,105,001,2019_Mar_14_0933,test_run,3.0.6,60.006175236060336,
125,ENW,ENW_35_nymaljen_150219.wav,n,t,,,,,0,8,8,124,,,,,,,,,,,,,,,n,1,1.3357539910030027,,,105,001,2019_Mar_14_0933,test_run,3.0.6,60.006175236060336,
31,EFW,EFW_1_allmaan_070319.wav,j,t,,,,,0,9,9,30,,,,,,,,,,,,,,,j,1,0.13366213699919172,,,105,001,2019_Mar_14_0933,test_run,3.0.6,60.006175236060336,
132,ENW,ENW_42_hamsforing_150219.wav,n,t,,,,,0,10,10,131,,,,,,,,,,,,,,,j,0,0.5357954549981514,,,105,001,2019_Mar_14_0933,test_run,3.0.6,60.006175236060336,
40,EFW,EFW_10_laarare_070319.wav,j,t,,,,,0,11,11,39,,,,,,,,,,,,,,,j,1,0.4031138460013608,,,105,001,2019_Mar_14_0933,test_run,3.0.6,60.006175236060336,
33,EFW,EFW_3_familjen_070319.wav,j,t,,,,,0,12,12,32,,,,,,,,,,,,,,,j,1,0.3356878409977071,,,105,001,2019_Mar_14_0933,test_run,3.0.6,60.006175236060336,
87,EFW,EFW_57_loenerna_070319.wav,j,t,,,,,0,13,13,86,,,,,,,,,,,,,,,j,1,0.23643483600244508,,,105,001,2019_Mar_14_0933,test_run,3.0.6,60.006175236060336,
20,ETW,ETW_20_loppmarknad_070319.wav,j,t,,,,,0,14,14,19,,,,,,,,,,,,,,,j,1,0.43539483900167397,,,105,001,2019_Mar_14_0933,test_run,3.0.6,60.006175236060336,
26,ETW,ETW_26_olympiad_070319.wav,j,t,,,,,0,15,15,25,,,,,,,,,,,,,,,j,1,0.2696285669990175,,,105,001,2019_Mar_14_0933,test_run,3.0.6,60.006175236060336,
74,EFW,EFW_44_ljusa_070319.wav,j,t,,,,,0,16,16,73,,,,,,,,,,,,,,,j,1,0.03358476100038388,,,105,001,2019_Mar_14_0933,test_run,3.0.6,60.006175236060336,
109,ENW,ENW_19_morloren_150219.wav,n,t,,,,,0,17,17,108,,,,,,,,,,,,,,,n,1,0.3190356570012227,,,105,001,2019_Mar_14_0933,test_run,3.0.6,60.006175236060336,
67,EFW,EFW_37_foervisso_070319.wav,j,t,,,,,0,18,18,66,,,,,,,,,,,,,,,j,1,0.26956887200140045,,,105,001,2019_Mar_14_0933,test_run,3.0.6,60.006175236060336,
139,ENW,ENW_49_hälskrena_150219.wav,n,t,,,,,0,19,19,138,,,,,,,,,,,,,,,j,0,0.2696977759987931,,,105,001,2019_Mar_14_0933,test_run,3.0.6,60.006175236060336,
112,ENW,ENW_22_fjäserna_150219.wav,n,t,,,,,0,20,20,111,,,,,,,,,,,,,,,n,1,0.3692540990014095,,,105,001,2019_Mar_14_0933,test_run,3.0.6,60.006175236060336,
22,ETW,ETW_22_sinnesfrid_070319.wav,j,t,,,,,0,21,21,21,,,,,,,,,,,,,,,j,1,0.2363669670012314,,,105,001,2019_Mar_14_0933,test_run,3.0.6,60.006175236060336,
23,ETW,ETW_23_promenad_070319.wav,j,t,,,,,0,22,22,22,,,,,,,,,,,,,,,j,1,0.252264565002406,,,105,001,2019_Mar_14_0933,test_run,3.0.6,60.006175236060336,
46,EFW,EFW_16_lyssna_070319.wav,j,t,,,,,0,23,23,45,,,,,,,,,,,,,,,j,1,0.2864155059978657,,,105,001,2019_Mar_14_0933,test_run,3.0.6,60.006175236060336,
106,ENW,ENW_16_rolinkar_150219.wav,n,t,,,,,0,24,24,105,,,,,,,,,,,,,,,n,1,0.535215898999013,,,105,001,2019_Mar_14_0933,test_run,3.0.6,60.006175236060336,
52,EFW,EFW_22_normala_070319.wav,j,t,,,,,0,25,25,51,,,,,,,,,,,,,,,j,1,0.7190417090023402,,,105,001,2019_Mar_14_0933,test_run,3.0.6,60.006175236060336,
63,EFW,EFW_33_elva_070319.wav,j,t,,,,,0,26,26,62,,,,,,,,,,,,,,,j,1,0.2855113439982233,,,105,001,2019_Mar_14_0933,test_run,3.0.6,60.006175236060336,
141,ENW,ENW_51_skillare_150219.wav,n,t,,,,,0,27,27,140,,,,,,,,,,,,,,,n,1,0.2531526950006082,,,105,001,2019_Mar_14_0933,test_run,3.0.6,60.006175236060336,
51,EFW,EFW_21_varierar_070319.wav,j,t,,,,,0,28,28,50,,,,,,,,,,,,,,,j,1,0.368910370998492,,,105,001,2019_Mar_14_0933,test_run,3.0.6,60.006175236060336,
59,EFW,EFW_29_formen_070319.wav,j,t,,,,,0,29,29,58,,,,,,,,,,,,,,,j,1,0.2023784569973941,,,105,001,2019_Mar_14_0933,test_run,3.0.6,60.006175236060336,
60,EFW,EFW_30_officiella_070319.wav,j,t,,,,,0,30,30,59,,,,,,,,,,,,,,,j,1,0.2362792450003326,,,105,001,2019_Mar_14_0933,test_run,3.0.6,60.006175236060336,
120,ENW,ENW_30_sojera_150219.wav,n,t,,,,,0,31,31,119,,,,,,,,,,,,,,,n,1,1.251949067998794,,,105,001,2019_Mar_14_0933,test_run,3.0.6,60.006175236060336,
68,EFW,EFW_38_foerefoell_070319.wav,j,t,,,,,0,32,32,67,,,,,,,,,,,,,,,j,1,0.26911171800020384,,,105,001,2019_Mar_14_0933,test_run,3.0.6,60.006175236060336,
148,ENW,ENW_58_malvossa_150219.wav,n,t,,,,,0,33,33,147,,,,,,,,,,,,,,,n,1,0.3022968139994191,,,105,001,2019_Mar_14_0933,test_run,3.0.6,60.006175236060336,
115,ENW,ENW_25_affierar_150219.wav,n,t,,,,,0,34,34,114,,,,,,,,,,,,,,,n,1,0.283637202999671,,,105,001,2019_Mar_14_0933,test_run,3.0.6,60.006175236060336,
37,EFW,EFW_7_sociala_070319.wav,j,t,,,,,0,35,35,36,,,,,,,,,,,,,,,j,1,0.5188019340021128,,,105,001,2019_Mar_14_0933,test_run,3.0.6,60.006175236060336,
107,ENW,ENW_17_kopynnor_150219.wav,n,t,,,,,0,36,36,106,,,,,,,,,,,,,,,n,1,0.4021117280026374,,,105,001,2019_Mar_14_0933,test_run,3.0.6,60.006175236060336,
79,EFW,EFW_49_vaasen_070319.wav,j,t,,,,,0,37,37,78,,,,,,,,,,,,,,,j,1,0.7003180920000887,,,105,001,2019_Mar_14_0933,test_run,3.0.6,60.006175236060336,
83,EFW,EFW_53_sovrum_070319.wav,j,t,,,,,0,38,38,82,,,,,,,,,,,,,,,j,1,0.6186512050007877,,,105,001,2019_Mar_14_0933,test_run,3.0.6,60.006175236060336,
34,EFW,EFW_4_foerminska_070319.wav,j,t,,,,,0,39,39,33,,,,,,,,,,,,,,,j,1,0.5023888680007076,,,105,001,2019_Mar_14_0933,test_run,3.0.6,60.006175236060336,
180,ENW,ENW_90_skrivinar_150219.wav,n,t,,,,,0,40,40,179,,,,,,,,,,,,,,,n,1,0.18554118199972436,,,105,001,2019_Mar_14_0933,test_run,3.0.6,60.006175236060336,
129,ENW,ENW_39_ljusonar_150219.wav,n,t,,,,,0,41,41,128,,,,,,,,,,,,,,,n,1,1.3855490120004106,,,105,001,2019_Mar_14_0933,test_run,3.0.6,60.006175236060336,
53,EFW,EFW_23_aamne_070319.wav,j,t,,,,,0,42,42,52,,,,,,,,,,,,,,,j,1,0.35224761800054694,,,105,001,2019_Mar_14_0933,test_run,3.0.6,60.006175236060336,
69,EFW,EFW_39_foersvara_070319.wav,j,t,,,,,0,43,43,68,,,,,,,,,,,,,,,j,1,0.2353352950012777,,,105,001,2019_Mar_14_0933,test_run,3.0.6,60.006175236060336,
119,ENW,ENW_29_uppskira_150219.wav,n,t,,,,,0,44,44,118,,,,,,,,,,,,,,,j,0,1.3020142109999142,,,105,001,2019_Mar_14_0933,test_run,3.0.6,60.006175236060336,
134,ENW,ENW_44_inlivna_150219.wav,n,t,,,,,0,45,45,133,,,,,,,,,,,,,,,n,1,0.4854277250015002,,,105,001,2019_Mar_14_0933,test_run,3.0.6,60.006175236060336,
25,ETW,ETW_25_mikrosekund_070319.wav,j,t,,,,,0,46,46,24,,,,,,,,,,,,,,,j,1,0.28521968200220726,,,105,001,2019_Mar_14_0933,test_run,3.0.6,60.006175236060336,
146,ENW,ENW_56_lysskarna_150219.wav,n,t,,,,,0,47,47,145,,,,,,,,,,,,,,,n,1,0.23525972500283387,,,105,001,2019_Mar_14_0933,test_run,3.0.6,60.006175236060336,
143,ENW,ENW_53_svarmvisso_150219.wav,n,t,,,,,0,48,48,142,,,,,,,,,,,,,,,n,1,0.3355578330010758,,,105,001,2019_Mar_14_0933,test_run,3.0.6,60.006175236060336,
78,EFW,EFW_48_varifroan_070319.wav,j,t,,,,,0,49,49,77,,,,,,,,,,,,,,,j,1,0.21892514200226287,,,105,001,2019_Mar_14_0933,test_run,3.0.6,60.006175236060336,
91,ENW,ENW_1_norsimerar_150219.wav,n,t,,,,,0,50,50,90,,,,,,,,,,,,,,,n,1,0.652617415998975,,,105,001,2019_Mar_14_0933,test_run,3.0.6,60.006175236060336,
92,ENW,ENW_2_overralka_150219.wav,n,t,,,,,0,51,51,91,,,,,,,,,,,,,,,n,1,0.2520619169990823,,,105,001,2019_Mar_14_0933,test_run,3.0.6,60.006175236060336,
166,ENW,ENW_76_omfläskor_150219.wav,n,t,,,,,0,52,52,165,,,,,,,,,,,,,,,n,1,1.1354717750000418,,,105,001,2019_Mar_14_0933,test_run,3.0.6,60.006175236060336,
172,ENW,ENW_82_värskappa_150219.wav,n,t,,,,,0,53,53,171,,,,,,,,,,,,,,,n,1,0.2687477960025717,,,105,001,2019_Mar_14_0933,test_run,3.0.6,60.006175236060336,
32,EFW,EFW_2_snarare_070319.wav,j,t,,,,,0,54,54,31,,,,,,,,,,,,,,,j,1,0.21961452399773407,,,105,001,2019_Mar_14_0933,test_run,3.0.6,60.006175236060336,
12,ETW,ETW_12_offerlund_070319.wav,j,t,,,,,0,55,55,11,,,,,,,,,,,,,,,n,0,0.28606762400158914,,,105,001,2019_Mar_14_0933,test_run,3.0.6,60.006175236060336,
100,ENW,ENW_10_skinnamer_150219.wav,n,t,,,,,0,56,56,99,,,,,,,,,,,,,,,n,1,0.2690576469976804,,,105,001,2019_Mar_14_0933,test_run,3.0.6,60.006175236060336,
49,EFW,EFW_19_roerelse_070319.wav,j,t,,,,,0,57,57,48,,,,,,,,,,,,,,,j,1,0.21903912899870193,,,105,001,2019_Mar_14_0933,test_run,3.0.6,60.006175236060336,
124,ENW,ENW_34_jomera_150219.wav,n,t,,,,,0,58,58,123,,,,,,,,,,,,,,,n,1,0.5023204280005302,,,105,001,2019_Mar_14_0933,test_run,3.0.6,60.006175236060336,
7,ETW,ETW_7_hemland_070319.wav,j,t,,,,,0,59,59,6,,,,,,,,,,,,,,,j,1,0.6689955990004819,,,105,001,2019_Mar_14_0933,test_run,3.0.6,60.006175236060336,
149,ENW,ENW_59_kyrkmänning_150219.wav,n,t,,,,,0,60,60,148,,,,,,,,,,,,,,,n,1,0.2525367760026711,,,105,001,2019_Mar_14_0933,test_run,3.0.6,60.006175236060336,
3,ETW,ETW_3_choklad_070319.wav,j,t,,,,,0,61,61,2,,,,,,,,,,,,,,,j,1,0.2523495189998357,,,105,001,2019_Mar_14_0933,test_run,3.0.6,60.006175236060336,
41,EFW,EFW_11_maanniskor_070319.wav,j,t,,,,,0,62,62,40,,,,,,,,,,,,,,,j,1,0.03563207200204488,,,105,001,2019_Mar_14_0933,test_run,3.0.6,60.006175236060336,
95,ENW,ENW_5_spoamisk_150219.wav,n,t,,,,,0,63,63,94,,,,,,,,,,,,,,,n,1,0.20211973400000716,,,105,001,2019_Mar_14_0933,test_run,3.0.6,60.006175236060336,
153,ENW,ENW_63_femyrisk_150219.wav,n,t,,,,,0,64,64,152,,,,,,,,,,,,,,,n,1,0.2519432900007814,,,105,001,2019_Mar_14_0933,test_run,3.0.6,60.006175236060336,
77,EFW,EFW_47_invoanare_070319.wav,j,t,,,,,0,65,65,76,,,,,,,,,,,,,,,j,1,0.30372913800238166,,,105,001,2019_Mar_14_0933,test_run,3.0.6,60.006175236060336,
64,EFW,EFW_34_sommar_070319.wav,j,t,,,,,0,66,66,63,,,,,,,,,,,,,,,j,1,0.33582341899818857,,,105,001,2019_Mar_14_0933,test_run,3.0.6,60.006175236060336,
13,ETW,ETW_13_oevervoald_070319.wav,j,t,,,,,0,67,67,12,,,,,,,,,,,,,,,j,1,0.3187809449991619,,,105,001,2019_Mar_14_0933,test_run,3.0.6,60.006175236060336,
174,ENW,ENW_84_hurmarna_150219.wav,n,t,,,,,0,68,68,173,,,,,,,,,,,,,,,n,1,0.20030494800084853,,,105,001,2019_Mar_14_0933,test_run,3.0.6,60.006175236060336,
42,EFW,EFW_12_foeremoal_070319.wav,j,t,,,,,0,69,69,41,,,,,,,,,,,,,,,j,1,0.9363467340008356,,,105,001,2019_Mar_14_0933,test_run,3.0.6,60.006175236060336,
127,ENW,ENW_37_spallrivet_150219.wav,n,t,,,,,0,70,70,126,,,,,,,,,,,,,,,n,1,0.2693868019996444,,,105,001,2019_Mar_14_0933,test_run,3.0.6,60.006175236060336,
1,ETW,ETW_1_oskuld_070319.wav,j,t,,,,,0,71,71,0,,,,,,,,,,,,,,,j,1,0.20300096400023904,,,105,001,2019_Mar_14_0933,test_run,3.0.6,60.006175236060336,
111,ENW,ENW_21_tjulning_150219.wav,n,t,,,,,0,72,72,110,,,,,,,,,,,,,,,j,0,0.8692033240004093,,,105,001,2019_Mar_14_0933,test_run,3.0.6,60.006175236060336,
5,ETW,ETW_5_skepnad_070319.wav,j,t,,,,,0,73,73,4,,,,,,,,,,,,,,,j,1,0.2695211249993008,,,105,001,2019_Mar_14_0933,test_run,3.0.6,60.006175236060336,
102,ENW,ENW_12_snälmola_150219.wav,n,t,,,,,0,74,74,101,,,,,,,,,,,,,,,n,1,0.2522078049987613,,,105,001,2019_Mar_14_0933,test_run,3.0.6,60.006175236060336,
29,ETW,ETW_29_oeverhuvud_070319.wav,j,t,,,,,0,75,75,28,,,,,,,,,,,,,,,j,1,0.45226102599917795,,,105,001,2019_Mar_14_0933,test_run,3.0.6,60.006175236060336,
55,EFW,EFW_25_informera_070319.wav,j,t,,,,,0,76,76,54,,,,,,,,,,,,,,,j,1,0.2690892049977265,,,105,001,2019_Mar_14_0933,test_run,3.0.6,60.006175236060336,
170,ENW,ENW_80_tjarfera_150219.wav,n,t,,,,,0,77,77,169,,,,,,,,,,,,,,,n,1,0.28583805300149834,,,105,001,2019_Mar_14_0933,test_run,3.0.6,60.006175236060336,
122,ENW,ENW_32_fonering_150219.wav,n,t,,,,,0,78,78,121,,,,,,,,,,,,,,,n,1,0.8029567490011686,,,105,001,2019_Mar_14_0933,test_run,3.0.6,60.006175236060336,
4,ETW,ETW_4_livraadd_070319.wav,j,t,,,,,0,79,79,3,,,,,,,,,,,,,,,j,1,0.7357427989991265,,,105,001,2019_Mar_14_0933,test_run,3.0.6,60.006175236060336,
18,ETW,ETW_18_husfasad_070319.wav,j,t,,,,,0,80,80,17,,,,,,,,,,,,,,,j,1,2.4857888459991955,,,105,001,2019_Mar_14_0933,test_run,3.0.6,60.006175236060336,
45,EFW,EFW_15_oeverens_070319.wav,j,t,,,,,0,81,81,44,,,,,,,,,,,,,,,j,1,1.0531718919992272,,,105,001,2019_Mar_14_0933,test_run,3.0.6,60.006175236060336,
88,EFW,EFW_58_examen_070319.wav,j,t,,,,,0,82,82,87,,,,,,,,,,,,,,,j,1,0.6169729040011589,,,105,001,2019_Mar_14_0933,test_run,3.0.6,60.006175236060336,
144,ENW,ENW_54_lomering_150219.wav,n,t,,,,,0,83,83,143,,,,,,,,,,,,,,,n,1,1.2356919939993531,,,105,001,2019_Mar_14_0933,test_run,3.0.6,60.006175236060336,
162,ENW,ENW_72_urskecken_150219.wav,n,t,,,,,0,84,84,161,,,,,,,,,,,,,,,n,1,0.0695445480014314,,,105,001,2019_Mar_14_0933,test_run,3.0.6,60.006175236060336,
86,EFW,EFW_56_mormor_070319.wav,j,t,,,,,0,85,85,85,,,,,,,,,,,,,,,j,1,2.13556238199817,,,105,001,2019_Mar_14_0933,test_run,3.0.6,60.006175236060336,
73,EFW,EFW_43_halvoar_070319.wav,j,t,,,,,0,86,86,72,,,,,,,,,,,,,,,j,1,1.3365312610003457,,,105,001,2019_Mar_14_0933,test_run,3.0.6,60.006175236060336,
47,EFW,EFW_17_januari_070319.wav,j,t,,,,,0,87,87,46,,,,,,,,,,,,,,,j,1,0.018848050000087824,,,105,001,2019_Mar_14_0933,test_run,3.0.6,60.006175236060336,
15,ETW,ETW_15_knivsudd_070319.wav,j,t,,,,,0,88,88,14,,,,,,,,,,,,,,,n,0,1.3856033480005863,,,105,001,2019_Mar_14_0933,test_run,3.0.6,60.006175236060336,
6,ETW,ETW_6_vemod_070319.wav,j,t,,,,,0,89,89,5,,,,,,,,,,,,,,,n,0,0.23577522399864392,,,105,001,2019_Mar_14_0933,test_run,3.0.6,60.006175236060336,
43,EFW,EFW_13_elever_070319.wav,j,t,,,,,0,90,90,42,,,,,,,,,,,,,,,j,1,0.20216015900223283,,,105,001,2019_Mar_14_0933,test_run,3.0.6,60.006175236060336,
164,ENW,ENW_74_malsera_150219.wav,n,t,,,,,0,91,91,163,,,,,,,,,,,,,,,n,1,0.4190178540011402,,,105,001,2019_Mar_14_0933,test_run,3.0.6,60.006175236060336,
159,ENW,ENW_69_mjohusa_150219.wav,n,t,,,,,0,92,92,158,,,,,,,,,,,,,,,n,1,0.3356631649985502,,,105,001,2019_Mar_14_0933,test_run,3.0.6,60.006175236060336,
89,EFW,EFW_59_filosofin_070319.wav,j,t,,,,,0,93,93,88,,,,,,,,,,,,,,,j,1,0.4863343850011006,,,105,001,2019_Mar_14_0933,test_run,3.0.6,60.006175236060336,
116,ENW,ENW_26_anufera_150219.wav,n,t,,,,,0,94,94,115,,,,,,,,,,,,,,,n,1,0.15057643199907034,,,105,001,2019_Mar_14_0933,test_run,3.0.6,60.006175236060336,
66,EFW,EFW_36_haarifroan_070319.wav,j,t,,,,,0,95,95,65,,,,,,,,,,,,,,,j,1,0.3194662639980379,,,105,001,2019_Mar_14_0933,test_run,3.0.6,60.006175236060336,
90,EFW,EFW_60_insulin_070319.wav,j,t,,,,,0,96,96,89,,,,,,,,,,,,,,,j,1,0.3025006989992107,,,105,001,2019_Mar_14_0933,test_run,3.0.6,60.006175236060336,
160,ENW,ENW_70_roklarner_150219.wav,n,t,,,,,0,97,97,159,,,,,,,,,,,,,,,n,1,0.2026048230000015,,,105,001,2019_Mar_14_0933,test_run,3.0.6,60.006175236060336,
177,ENW,ENW_87_kloavare_150219.wav,n,t,,,,,0,98,98,176,,,,,,,,,,,,,,,n,1,0.2696478139987448,,,105,001,2019_Mar_14_0933,test_run,3.0.6,60.006175236060336,
123,ENW,ENW_33_froamation_150219.wav,n,t,,,,,0,99,99,122,,,,,,,,,,,,,,,n,1,0.46928133799883653,,,105,001,2019_Mar_14_0933,test_run,3.0.6,60.006175236060336,
169,ENW,ENW_79_lyxmare_150219.wav,n,t,,,,,0,100,100,168,,,,,,,,,,,,,,,n,1,0.18567873099891585,,,105,001,2019_Mar_14_0933,test_run,3.0.6,60.006175236060336,
76,EFW,EFW_46_foerhoer_070319.wav,j,t,,,,,0,101,101,75,,,,,,,,,,,,,,,j,1,0.22016004500255804,,,105,001,2019_Mar_14_0933,test_run,3.0.6,60.006175236060336,
103,ENW,ENW_13_forvaron_150219.wav,n,t,,,,,0,102,102,102,,,,,,,,,,,,,,,j,0,0.08559762200093246,,,105,001,2019_Mar_14_0933,test_run,3.0.6,60.006175236060336,
147,ENW,ENW_57_flovanning_150219.wav,n,t,,,,,0,103,103,146,,,,,,,,,,,,,,,n,1,0.33527533099913853,,,105,001,2019_Mar_14_0933,test_run,3.0.6,60.006175236060336,
44,EFW,EFW_14_foersoeken_070319.wav,j,t,,,,,0,104,104,43,,,,,,,,,,,,,,,n,0,0.3526792070006195,,,105,001,2019_Mar_14_0933,test_run,3.0.6,60.006175236060336,
56,EFW,EFW_26_armarna_070319.wav,j,t,,,,,0,105,105,55,,,,,,,,,,,,,,,j,1,0.8020508120025625,,,105,001,2019_Mar_14_0933,test_run,3.0.6,60.006175236060336,
136,ENW,ENW_46_pommera_150219.wav,n,t,,,,,0,106,106,135,,,,,,,,,,,,,,,n,1,0.05246855799850891,,,105,001,2019_Mar_14_0933,test_run,3.0.6,60.006175236060336,
130,ENW,ENW_40_knipackar_150219.wav,n,t,,,,,0,107,107,129,,,,,,,,,,,,,,,n,1,0.38546697899801075,,,105,001,2019_Mar_14_0933,test_run,3.0.6,60.006175236060336,
151,ENW,ENW_61_myckskina_150219.wav,n,t,,,,,0,108,108,150,,,,,,,,,,,,,,,n,1,0.2669420180027373,,,105,001,2019_Mar_14_0933,test_run,3.0.6,60.006175236060336,
10,ETW,ETW_10_nomad_070319.wav,j,t,,,,,0,109,109,9,,,,,,,,,,,,,,,j,1,1.4027630320015305,,,105,001,2019_Mar_14_0933,test_run,3.0.6,60.006175236060336,
8,ETW,ETW_8_samfund_070319.wav,j,t,,,,,0,110,110,7,,,,,,,,,,,,,,,j,1,0.2527157439981238,,,105,001,2019_Mar_14_0933,test_run,3.0.6,60.006175236060336,
165,ENW,ENW_75_foarskining_150219.wav,n,t,,,,,0,111,111,164,,,,,,,,,,,,,,,n,1,0.3025022270012414,,,105,001,2019_Mar_14_0933,test_run,3.0.6,60.006175236060336,
168,ENW,ENW_78_morvinder_150219.wav,n,t,,,,,0,112,112,167,,,,,,,,,,,,,,,n,1,0.25286214699735865,,,105,001,2019_Mar_14_0933,test_run,3.0.6,60.006175236060336,
137,ENW,ENW_47_oafläppen_150219.wav,n,t,,,,,0,113,113,136,,,,,,,,,,,,,,,n,1,0.5695050979993539,,,105,001,2019_Mar_14_0933,test_run,3.0.6,60.006175236060336,
99,ENW,ENW_9_samlemor_150219.wav,n,t,,,,,0,114,114,98,,,,,,,,,,,,,,,n,1,0.5188435780000873,,,105,001,2019_Mar_14_0933,test_run,3.0.6,60.006175236060336,
178,ENW,ENW_88_marsifen_150219.wav,n,t,,,,,0,115,115,177,,,,,,,,,,,,,,,n,1,1.4854934889990545,,,105,001,2019_Mar_14_0933,test_run,3.0.6,60.006175236060336,
16,ETW,ETW_16_episod_070319.wav,j,t,,,,,0,116,116,15,,,,,,,,,,,,,,,j,1,0.4354821519991674,,,105,001,2019_Mar_14_0933,test_run,3.0.6,60.006175236060336,
71,EFW,EFW_41_infinna_070319.wav,j,t,,,,,0,117,117,70,,,,,,,,,,,,,,,j,1,0.3025046340007975,,,105,001,2019_Mar_14_0933,test_run,3.0.6,60.006175236060336,
154,ENW,ENW_64_havskvare_150219.wav,n,t,,,,,0,118,118,153,,,,,,,,,,,,,,,n,1,2.1193789159988228,,,105,001,2019_Mar_14_0933,test_run,3.0.6,60.006175236060336,
135,ENW,ENW_45_fammoarens_150219.wav,n,t,,,,,0,119,119,134,,,,,,,,,,,,,,,n,1,0.7188002449984197,,,105,001,2019_Mar_14_0933,test_run,3.0.6,60.006175236060336,
110,ENW,ENW_20_invonen_150219.wav,n,t,,,,,0,120,120,109,,,,,,,,,,,,,,,n,1,0.33607652300270274,,,105,001,2019_Mar_14_0933,test_run,3.0.6,60.006175236060336,
140,ENW,ENW_50_omsänare_150219.wav,n,t,,,,,0,121,121,139,,,,,,,,,,,,,,,n,1,0.1854597890014702,,,105,001,2019_Mar_14_0933,test_run,3.0.6,60.006175236060336,
97,ENW,ENW_7_flasera_150219.wav,n,t,,,,,0,122,122,96,,,,,,,,,,,,,,,n,1,0.05223250999915763,,,105,001,2019_Mar_14_0933,test_run,3.0.6,60.006175236060336,
27,ETW,ETW_27_medellivslaangd_070319.wav,j,t,,,,,0,123,123,26,,,,,,,,,,,,,,,j,1,0.800616993001313,,,105,001,2019_Mar_14_0933,test_run,3.0.6,60.006175236060336,
39,EFW,EFW_9_infektion_070319.wav,j,t,,,,,0,124,124,38,,,,,,,,,,,,,,,j,1,0.31978230100139626,,,105,001,2019_Mar_14_0933,test_run,3.0.6,60.006175236060336,
72,EFW,EFW_42_naavaron_070319.wav,j,t,,,,,0,125,125,71,,,,,,,,,,,,,,,j,1,1.6532185140022193,,,105,001,2019_Mar_14_0933,test_run,3.0.6,60.006175236060336,
75,EFW,EFW_45_innanfoer_070319.wav,j,t,,,,,0,126,126,74,,,,,,,,,,,,,,,j,1,0.6191087820006942,,,105,001,2019_Mar_14_0933,test_run,3.0.6,60.006175236060336,
108,ENW,ENW_18_moalursena_150219.wav,n,t,,,,,0,127,127,107,,,,,,,,,,,,,,,n,1,0.31911218900131644,,,105,001,2019_Mar_14_0933,test_run,3.0.6,60.006175236060336,
176,ENW,ENW_86_heloppsin_150219.wav,n,t,,,,,0,128,128,175,,,,,,,,,,,,,,,j,0,0.33576432000336354,,,105,001,2019_Mar_14_0933,test_run,3.0.6,60.006175236060336,
17,ETW,ETW_17_hemmavid_070319.wav,j,t,,,,,0,129,129,16,,,,,,,,,,,,,,,n,0,0.2520107050004299,,,105,001,2019_Mar_14_0933,test_run,3.0.6,60.006175236060336,
19,ETW,ETW_19_saallskapshund_070319.wav,j,t,,,,,0,130,130,18,,,,,,,,,,,,,,,j,1,0.35283168100067996,,,105,001,2019_Mar_14_0933,test_run,3.0.6,60.006175236060336,
35,EFW,EFW_5_samhaalle_070319.wav,j,t,,,,,0,131,131,34,,,,,,,,,,,,,,,j,1,0.16920297800243134,,,105,001,2019_Mar_14_0933,test_run,3.0.6,60.006175236060336,
105,ENW,ENW_15_forfeckla_150219.wav,n,t,,,,,0,132,132,104,,,,,,,,,,,,,,,n,1,0.2031592230014212,,,105,001,2019_Mar_14_0933,test_run,3.0.6,60.006175236060336,
93,ENW,ENW_3_vissorens_150219.wav,n,t,,,,,0,133,133,92,,,,,,,,,,,,,,,n,1,1.018988863001141,,,105,001,2019_Mar_14_0933,test_run,3.0.6,60.006175236060336,
128,ENW,ENW_38_roakanier_150219.wav,n,t,,,,,0,134,134,127,,,,,,,,,,,,,,,n,1,0.23549767599979532,,,105,001,2019_Mar_14_0933,test_run,3.0.6,60.006175236060336,
104,ENW,ENW_14_kärmenor_150219.wav,n,t,,,,,0,135,135,103,,,,,,,,,,,,,,,n,1,0.23574074400312384,,,105,001,2019_Mar_14_0933,test_run,3.0.6,60.006175236060336,
131,ENW,ENW_41_vessmaren_150219.wav,n,t,,,,,0,136,136,130,,,,,,,,,,,,,,,n,1,0.23585378999996465,,,105,001,2019_Mar_14_0933,test_run,3.0.6,60.006175236060336,
58,EFW,EFW_28_olja_070319.wav,j,t,,,,,0,137,137,57,,,,,,,,,,,,,,,j,1,0.18566578100217157,,,105,001,2019_Mar_14_0933,test_run,3.0.6,60.006175236060336,
173,ENW,ENW_83_fyrskovar_150219.wav,n,t,,,,,0,138,138,172,,,,,,,,,,,,,,,n,1,0.16960757999913767,,,105,001,2019_Mar_14_0933,test_run,3.0.6,60.006175236060336,
82,EFW,EFW_52_framhoalla_070319.wav,j,t,,,,,0,139,139,81,,,,,,,,,,,,,,,j,1,0.6193481020018226,,,105,001,2019_Mar_14_0933,test_run,3.0.6,60.006175236060336,
156,ENW,ENW_66_voarsmenar_150219.wav,n,t,,,,,0,140,140,155,,,,,,,,,,,,,,,n,1,1.219094194999343,,,105,001,2019_Mar_14_0933,test_run,3.0.6,60.006175236060336,
161,ENW,ENW_71_forskäckla_150219.wav,n,t,,,,,0,141,141,160,,,,,,,,,,,,,,,n,1,0.06940994300020975,,,105,001,2019_Mar_14_0933,test_run,3.0.6,60.006175236060336,
98,ENW,ENW_8_haväras_150219.wav,n,t,,,,,0,142,142,97,,,,,,,,,,,,,,,n,1,0.48609017800117726,,,105,001,2019_Mar_14_0933,test_run,3.0.6,60.006175236060336,
157,ENW,ENW_67_oafreskar_150219.wav,n,t,,,,,0,143,143,156,,,,,,,,,,,,,,,n,1,0.16890749500089441,,,105,001,2019_Mar_14_0933,test_run,3.0.6,60.006175236060336,
179,ENW,ENW_89_mikenspoan_150219.wav,n,t,,,,,0,144,144,178,,,,,,,,,,,,,,,n,1,1.0355508540014853,,,105,001,2019_Mar_14_0933,test_run,3.0.6,60.006175236060336,
61,EFW,EFW_31_jaamfoera_070319.wav,j,t,,,,,0,145,145,60,,,,,,,,,,,,,,,j,1,0.35287152900127694,,,105,001,2019_Mar_14_0933,test_run,3.0.6,60.006175236060336,
158,ENW,ENW_68_presionar_150219.wav,n,t,,,,,0,146,146,157,,,,,,,,,,,,,,,n,1,0.7690197249976336,,,105,001,2019_Mar_14_0933,test_run,3.0.6,60.006175236060336,
81,EFW,EFW_51_seminarier_070319.wav,j,t,,,,,0,147,147,80,,,,,,,,,,,,,,,j,1,0.8361126929994498,,,105,001,2019_Mar_14_0933,test_run,3.0.6,60.006175236060336,
133,ENW,ENW_43_axalän_150219.wav,n,t,,,,,0,148,148,132,,,,,,,,,,,,,,,n,1,1.4187145720025,,,105,001,2019_Mar_14_0933,test_run,3.0.6,60.006175236060336,
117,ENW,ENW_27_lyssvinner_150219.wav,n,t,,,,,0,149,149,116,,,,,,,,,,,,,,,n,1,0.686145353000029,,,105,001,2019_Mar_14_0933,test_run,3.0.6,60.006175236060336,
24,ETW,ETW_24_oeverfloed_070319.wav,j,t,,,,,0,150,150,23,,,,,,,,,,,,,,,j,1,0.2693524169990269,,,105,001,2019_Mar_14_0933,test_run,3.0.6,60.006175236060336,
80,EFW,EFW_50_snaalla_070319.wav,j,t,,,,,0,151,151,79,,,,,,,,,,,,,,,j,1,0.05294262400275329,,,105,001,2019_Mar_14_0933,test_run,3.0.6,60.006175236060336,
21,ETW,ETW_21_marmelad_070319.wav,j,t,,,,,0,152,152,20,,,,,,,,,,,,,,,j,1,0.23619965800025966,,,105,001,2019_Mar_14_0933,test_run,3.0.6,60.006175236060336,
155,ENW,ENW_65_hamfylla_150219.wav,n,t,,,,,0,153,153,154,,,,,,,,,,,,,,,n,1,0.13389126199763268,,,105,001,2019_Mar_14_0933,test_run,3.0.6,60.006175236060336,
113,ENW,ENW_23_allsänning_150219.wav,n,t,,,,,0,154,154,112,,,,,,,,,,,,,,,n,1,0.28606938300072215,,,105,001,2019_Mar_14_0933,test_run,3.0.6,60.006175236060336,
38,EFW,EFW_8_samman_070319.wav,j,t,,,,,0,155,155,37,,,,,,,,,,,,,,,j,1,1.2023293159982131,,,105,001,2019_Mar_14_0933,test_run,3.0.6,60.006175236060336,
70,EFW,EFW_40_miljoner_070319.wav,j,t,,,,,0,156,156,69,,,,,,,,,,,,,,,j,1,0.31870631700076046,,,105,001,2019_Mar_14_0933,test_run,3.0.6,60.006175236060336,
2,ETW,ETW_2_skillnad_070319.wav,j,t,,,,,0,157,157,1,,,,,,,,,,,,,,,j,1,0.202357865000522,,,105,001,2019_Mar_14_0933,test_run,3.0.6,60.006175236060336,
84,EFW,EFW_54_romaner_070319.wav,j,t,,,,,0,158,158,83,,,,,,,,,,,,,,,j,1,0.1357870459978585,,,105,001,2019_Mar_14_0933,test_run,3.0.6,60.006175236060336,
94,ENW,ENW_4_kyllfaren_150219.wav,n,t,,,,,0,159,159,93,,,,,,,,,,,,,,,n,1,0.5357866820013442,,,105,001,2019_Mar_14_0933,test_run,3.0.6,60.006175236060336,
50,EFW,EFW_20_fenomen_070319.wav,j,t,,,,,0,160,160,49,,,,,,,,,,,,,,,j,1,0.3526759699998365,,,105,001,2019_Mar_14_0933,test_run,3.0.6,60.006175236060336,
171,ENW,ENW_81_persifera_150219.wav,n,t,,,,,0,161,161,170,,,,,,,,,,,,,,,n,1,0.23543172599966056,,,105,001,2019_Mar_14_0933,test_run,3.0.6,60.006175236060336,
96,ENW,ENW_6_vilfroaser_150219.wav,n,t,,,,,0,162,162,95,,,,,,,,,,,,,,,n,1,0.3362205310004356,,,105,001,2019_Mar_14_0933,test_run,3.0.6,60.006175236060336,
62,EFW,EFW_32_fyller_070319.wav,j,t,,,,,0,163,163,61,,,,,,,,,,,,,,,n,0,1.0688857129971439,,,105,001,2019_Mar_14_0933,test_run,3.0.6,60.006175236060336,
145,ENW,ENW_55_invaskin_150219.wav,n,t,,,,,0,164,164,144,,,,,,,,,,,,,,,n,1,0.21953623299850733,,,105,001,2019_Mar_14_0933,test_run,3.0.6,60.006175236060336,
138,ENW,ENW_48_skyjamsen_150219.wav,n,t,,,,,0,165,165,137,,,,,,,,,,,,,,,n,1,0.8187344260004465,,,105,001,2019_Mar_14_0933,test_run,3.0.6,60.006175236060336,
152,ENW,ENW_62_ljullepilja_150219.wav,n,t,,,,,0,166,166,151,,,,,,,,,,,,,,,n,1,0.21925642100177356,,,105,001,2019_Mar_14_0933,test_run,3.0.6,60.006175236060336,
9,ETW,ETW_9_haarmed_070319.wav,j,t,,,,,0,167,167,8,,,,,,,,,,,,,,,n,0,0.6192250450003485,,,105,001,2019_Mar_14_0933,test_run,3.0.6,60.006175236060336,
28,ETW,ETW_28_kommunalroad_070319.wav,j,t,,,,,0,168,168,27,,,,,,,,,,,,,,,j,1,0.0697294609999517,,,105,001,2019_Mar_14_0933,test_run,3.0.6,60.006175236060336,
48,EFW,EFW_18_nummer_070319.wav,j,t,,,,,0,169,169,47,,,,,,,,,,,,,,,j,1,0.7854894949996378,,,105,001,2019_Mar_14_0933,test_run,3.0.6,60.006175236060336,
30,ETW,ETW_30_oeverlevnad_070319.wav,j,t,,,,,0,170,170,29,,,,,,,,,,,,,,,j,1,0.3187833129995852,,,105,001,2019_Mar_14_0933,test_run,3.0.6,60.006175236060336,
57,EFW,EFW_27_analysera_070319.wav,j,t,,,,,0,171,171,56,,,,,,,,,,,,,,,j,1,0.06918043000041507,,,105,001,2019_Mar_14_0933,test_run,3.0.6,60.006175236060336,
54,EFW,EFW_24_foersvinner_070319.wav,j,t,,,,,0,172,172,53,,,,,,,,,,,,,,,j,1,0.5357638220011722,,,105,001,2019_Mar_14_0933,test_run,3.0.6,60.006175236060336,
11,ETW,ETW_11_period_070319.wav,j,t,,,,,0,173,173,10,,,,,,,,,,,,,,,j,1,0.7525495699992462,,,105,001,2019_Mar_14_0933,test_run,3.0.6,60.006175236060336,
65,EFW,EFW_35_affaarer_070319.wav,j,t,,,,,0,174,174,64,,,,,,,,,,,,,,,j,1,0.11960482799986494,,,105,001,2019_Mar_14_0933,test_run,3.0.6,60.006175236060336,
175,ENW,ENW_85_forlinna_150219.wav,n,t,,,,,0,175,175,174,,,,,,,,,,,,,,,n,1,0.16960508600095636,,,105,001,2019_Mar_14_0933,test_run,3.0.6,60.006175236060336,
150,ENW,ENW_60_lackpenar_150219.wav,n,t,,,,,0,176,176,149,,,,,,,,,,,,,,,n,1,0.16905620699981228,,,105,001,2019_Mar_14_0933,test_run,3.0.6,60.006175236060336,
36,EFW,EFW_6_massa_070319.wav,j,t,,,,,0,177,177,35,,,,,,,,,,,,,,,n,0,0.3336380340006144,,,105,001,2019_Mar_14_0933,test_run,3.0.6,60.006175236060336,
163,ENW,ENW_73_vimmankalla_150219.wav,n,t,,,,,0,178,178,162,,,,,,,,,,,,,,,n,1,0.25057526999808033,,,105,001,2019_Mar_14_0933,test_run,3.0.6,60.006175236060336,
101,ENW,ENW_11_fränna_150219.wav,n,t,,,,,0,179,179,100,,,,,,,,,,,,,,,n,1,0.3671224860008806,,,105,001,2019_Mar_14_0933,test_run,3.0.6,60.006175236060336,
25,TDF,TDF_25_synd_070319.wav,,,1,rating_t_final.csv,t,final,,,,,0,0,0,0,0,0,0,1,0,0,0,24,,,,,,7,11.204,105,001,2019_Mar_14_0933,test_run,3.0.6,60.006175236060336,
21,TDF,TDF_21_ljod _070319.wav,,,1,rating_t_final.csv,t,final,,,,,0,0,0,0,0,0,0,1,0,1,1,20,,,,,,1,1.154,105,001,2019_Mar_14_0933,test_run,3.0.6,60.006175236060336,
11,TTF,TTF_11_svit_070319.wav,,,1,rating_t_final.csv,t,final,,,,,0,0,0,0,0,0,0,1,0,2,2,10,,,,,,6,1.488,105,001,2019_Mar_14_0933,test_run,3.0.6,60.006175236060336,
15,TTF,TTF_15_not_070319.wav,,,1,rating_t_final.csv,t,final,,,,,0,0,0,0,0,0,0,1,0,3,3,14,,,,,,4,2.153,105,001,2019_Mar_14_0933,test_run,3.0.6,60.006175236060336,
28,TDF,TDF_28_brand_070319.wav,,,1,rating_t_final.csv,t,final,,,,,0,0,0,0,0,0,0,1,0,4,4,27,,,,,,7,1.653,105,001,2019_Mar_14_0933,test_run,3.0.6,60.006175236060336,
30,TDF,TDF_30_sladd_070319.wav,,,1,rating_t_final.csv,t,final,,,,,0,0,0,0,0,0,0,1,0,5,5,29,,,,,,7,0.588,105,001,2019_Mar_14_0933,test_run,3.0.6,60.006175236060336,
26,TDF,TDF_26_rymd_070319.wav,,,1,rating_t_final.csv,t,final,,,,,0,0,0,0,0,0,0,1,0,6,6,25,,,,,,6,0.871,105,001,2019_Mar_14_0933,test_run,3.0.6,60.006175236060336,
17,TDF,TDF_17_sked_070319.wav,,,1,rating_t_final.csv,t,final,,,,,0,0,0,0,0,0,0,1,0,7,7,16,,,,,,4,1.52,105,001,2019_Mar_14_0933,test_run,3.0.6,60.006175236060336,
10,TTF,TTF_10_broet_070319.wav,,,1,rating_t_final.csv,t,final,,,,,0,0,0,0,0,0,0,1,0,8,8,9,,,,,,3,0.904,105,001,2019_Mar_14_0933,test_run,3.0.6,60.006175236060336,
32,TDF,TDF_32_hoard_070319.wav,,,1,rating_t_final.csv,t,final,,,,,0,0,0,0,0,0,0,1,0,9,9,31,,,,,,3,0.437,105,001,2019_Mar_14_0933,test_run,3.0.6,60.006175236060336,
4,TTF,TTF_4_roet_070319.wav,,,1,rating_t_final.csv,t,final,,,,,0,0,0,0,0,0,0,1,0,10,10,3,,,,,,3,1.655,105,001,2019_Mar_14_0933,test_run,3.0.6,60.006175236060336,
9,TTF,TTF_9_bot_070319.wav,,,1,rating_t_final.csv,t,final,,,,,0,0,0,0,0,0,0,1,0,11,11,8,,,,,,2,1.437,105,001,2019_Mar_14_0933,test_run,3.0.6,60.006175236060336,
16,TTF,TTF_16_font_070319.wav,,,1,rating_t_final.csv,t,final,,,,,0,0,0,0,0,0,0,1,0,12,12,15,,,,,,2,0.837,105,001,2019_Mar_14_0933,test_run,3.0.6,60.006175236060336,
24,TDF,TDF_24_smid_070319.wav,,,1,rating_t_final.csv,t,final,,,,,0,0,0,0,0,0,0,1,0,13,13,23,,,,,,4,0.987,105,001,2019_Mar_14_0933,test_run,3.0.6,60.006175236060336,
8,TTF,TTF_8_noet_070319.wav,,,1,rating_t_final.csv,t,final,,,,,0,0,0,0,0,0,0,1,0,14,14,7,,,,,,6,1.104,105,001,2019_Mar_14_0933,test_run,3.0.6,60.006175236060336,
12,TTF,TTF_12_smet_070319.wav,,,1,rating_t_final.csv,t,final,,,,,0,0,0,0,0,0,0,1,0,15,15,11,,,,,,7,0.736,105,001,2019_Mar_14_0933,test_run,3.0.6,60.006175236060336,
29,TDF,TDF_29_baadd_070319.wav,,,1,rating_t_final.csv,t,final,,,,,0,0,0,0,0,0,0,1,0,16,16,28,,,,,,4,1.138,105,001,2019_Mar_14_0933,test_run,3.0.6,60.006175236060336,
14,TTF,TTF_14_mot_070319.wav,,,1,rating_t_final.csv,t,final,,,,,0,0,0,0,0,0,0,1,0,17,17,13,,,,,,5,3.087,105,001,2019_Mar_14_0933,test_run,3.0.6,60.006175236060336,
23,TDF,TDF_23_hud_070319.wav,,,1,rating_t_final.csv,t,final,,,,,0,0,0,0,0,0,0,1,0,18,18,22,,,,,,6,0.437,105,001,2019_Mar_14_0933,test_run,3.0.6,60.006175236060336,
7,TTF,TTF_7_vit_070319.wav,,,1,rating_t_final.csv,t,final,,,,,0,0,0,0,0,0,0,1,0,19,19,6,,,,,,6,0.42,105,001,2019_Mar_14_0933,test_run,3.0.6,60.006175236060336,
20,TDF,TDF_20_god_070319.wav,,,1,rating_t_final.csv,t,final,,,,,0,0,0,0,0,0,0,1,0,20,20,19,,,,,,6,0.655,105,001,2019_Mar_14_0933,test_run,3.0.6,60.006175236060336,
19,TDF,TDF_19_sjod_070319.wav,,,1,rating_t_final.csv,t,final,,,,,0,0,0,0,0,0,0,1,0,21,21,18,,,,,,3,3.203,105,001,2019_Mar_14_0933,test_run,3.0.6,60.006175236060336,
2,TTF,TTF_2_vet_070319.wav,,,1,rating_t_final.csv,t,final,,,,,0,0,0,0,0,0,0,1,0,22,22,1,,,,,,4,4.12,105,001,2019_Mar_14_0933,test_run,3.0.6,60.006175236060336,
22,TDF,TDF_22_hed_070319.wav,,,1,rating_t_final.csv,t,final,,,,,0,0,0,0,0,0,0,1,0,23,23,21,,,,,,6,0.503,105,001,2019_Mar_14_0933,test_run,3.0.6,60.006175236060336,
5,TTF,TTF_5_voat_070319.wav,,,1,rating_t_final.csv,t,final,,,,,0,0,0,0,0,0,0,1,0,24,24,4,,,,,,7,1.388,105,001,2019_Mar_14_0933,test_run,3.0.6,60.006175236060336,
31,TDF,TDF_31_brodd_070319.wav,,,1,rating_t_final.csv,t,final,,,,,0,0,0,0,0,0,0,1,0,25,25,30,,,,,,2,0.987,105,001,2019_Mar_14_0933,test_run,3.0.6,60.006175236060336,
3,TTF,TTF_3_raat_070319.wav,,,1,rating_t_final.csv,t,final,,,,,0,0,0,0,0,0,0,1,0,26,26,2,,,,,,3,0.454,105,001,2019_Mar_14_0933,test_run,3.0.6,60.006175236060336,
6,TTF,TTF_6_voart_070319.wav,,,1,rating_t_final.csv,t,final,,,,,0,0,0,0,0,0,0,1,0,27,27,5,,,,,,7,0.737,105,001,2019_Mar_14_0933,test_run,3.0.6,60.006175236060336,
13,TTF,TTF_13_gjut_070319.wav,,,1,rating_t_final.csv,t,final,,,,,0,0,0,0,0,0,0,1,0,28,28,12,,,,,,2,0.904,105,001,2019_Mar_14_0933,test_run,3.0.6,60.006175236060336,
1,TTF,TTF_1_rit_070319.wav,,,1,rating_t_final.csv,t,final,,,,,0,0,0,0,0,0,0,1,0,29,29,0,,,,,,1,1.102,105,001,2019_Mar_14_0933,test_run,3.0.6,60.006175236060336,
27,TDF,TDF_27_sand_070319.wav,,,1,rating_t_final.csv,t,final,,,,,0,0,0,0,0,0,0,1,0,30,30,26,,,,,,1,2.02,105,001,2019_Mar_14_0933,test_run,3.0.6,60.006175236060336,
18,TDF,TDF_18_sjud_070319.wav,,,1,rating_t_final.csv,t,final,,,,,0,0,0,0,0,0,0,1,0,31,31,17,,,,,,1,0.471,105,001,2019_Mar_14_0933,test_run,3.0.6,60.006175236060336,
22,TTF,TTF_22_het_070319.wav,,,1,rating_d_final.csv,d,final,,,,,0,0,0,0,0,1,1,0,0,0,0,21,,,,,,1,0.437,105,001,2019_Mar_14_0933,test_run,3.0.6,60.006175236060336,
4,TDF,TDF_4_rod_070319.wav,,,1,rating_d_final.csv,d,final,,,,,0,0,0,0,0,1,1,0,0,1,1,3,,,,,,7,1.153,105,001,2019_Mar_14_0933,test_run,3.0.6,60.006175236060336,
25,TTF,TTF_25_synt_070319.wav,,,1,rating_d_final.csv,d,final,,,,,0,0,0,0,0,1,1,0,0,2,2,24,,,,,,1,0.869,105,001,2019_Mar_14_0933,test_run,3.0.6,60.006175236060336,
26,TTF,TTF_26_rymt_070319.wav,,,1,rating_d_final.csv,d,final,,,,,0,0,0,0,0,1,1,0,0,3,3,25,,,,,,1,1.238,105,001,2019_Mar_14_0933,test_run,3.0.6,60.006175236060336,
29,TTF,TTF_29_bett_070319.wav,,,1,rating_d_final.csv,d,final,,,,,0,0,0,0,0,1,1,0,0,4,4,28,,,,,,5,1.187,105,001,2019_Mar_14_0933,test_run,3.0.6,60.006175236060336,
31,TTF,TTF_31_brott_070319.wav,,,1,rating_d_final.csv,d,final,,,,,0,0,0,0,0,1,1,0,0,5,5,30,,,,,,5,0.57,105,001,2019_Mar_14_0933,test_run,3.0.6,60.006175236060336,
16,TDF,TDF_16_fond_070319.wav,,,1,rating_d_final.csv,d,final,,,,,0,0,0,0,0,1,1,0,0,6,6,15,,,,,,6,1.038,105,001,2019_Mar_14_0933,test_run,3.0.6,60.006175236060336,
11,TDF,TDF_11_svid_070319.wav,,,1,rating_d_final.csv,d,final,,,,,0,0,0,0,0,1,1,0,0,7,7,10,,,,,,4,1.737,105,001,2019_Mar_14_0933,test_run,3.0.6,60.006175236060336,
24,TTF,TTF_24_smit_070319.wav,,,1,rating_d_final.csv,d,final,,,,,0,0,0,0,0,1,1,0,0,8,8,23,,,,,,5,2.871,105,001,2019_Mar_14_0933,test_run,3.0.6,60.006175236060336,
6,TDF,TDF_6_voard_070319.wav,,,1,rating_d_final.csv,d,final,,,,,0,0,0,0,0,1,1,0,0,9,9,5,,,,,,6,0.77,105,001,2019_Mar_14_0933,test_run,3.0.6,60.006175236060336,
10,TDF,TDF_10_brod_070319.wav,,,1,rating_d_final.csv,d,final,,,,,0,0,0,0,0,1,1,0,0,10,10,9,,,,,,4,1.353,105,001,2019_Mar_14_0933,test_run,3.0.6,60.006175236060336,
32,TTF,TTF_32_hoart_070319.wav,,,1,rating_d_final.csv,d,final,,,,,0,0,0,0,0,1,1,0,0,11,11,31,,,,,,3,1.42,105,001,2019_Mar_14_0933,test_run,3.0.6,60.006175236060336,
9,TDF,TDF_9_bod_070319.wav,,,1,rating_d_final.csv,d,final,,,,,0,0,0,0,0,1,1,0,0,12,12,8,,,,,,2,2.054,105,001,2019_Mar_14_0933,test_run,3.0.6,60.006175236060336,
21,TTF,TTF_21_gjoet_070319.wav,,,1,rating_d_final.csv,d,final,,,,,0,0,0,0,0,1,1,0,0,13,13,20,,,,,,2,0.404,105,001,2019_Mar_14_0933,test_run,3.0.6,60.006175236060336,
14,TDF,TDF_14_mod_070319.wav,,,1,rating_d_final.csv,d,final,,,,,0,0,0,0,0,1,1,0,0,14,14,13,,,,,,6,0.954,105,001,2019_Mar_14_0933,test_run,3.0.6,60.006175236060336,
2,TDF,TDF_2_ved_070319.wav,,,1,rating_d_final.csv,d,final,,,,,0,0,0,0,0,1,1,0,0,15,15,1,,,,,,6,0.771,105,001,2019_Mar_14_0933,test_run,3.0.6,60.006175236060336,
1,TDF,TDF_1_rid_070319.wav,,,1,rating_d_final.csv,d,final,,,,,0,0,0,0,0,1,1,0,0,16,16,0,,,,,,7,0.803,105,001,2019_Mar_14_0933,test_run,3.0.6,60.006175236060336,
20,TTF,TTF_20_got_070319.wav,,,1,rating_d_final.csv,d,final,,,,,0,0,0,0,0,1,1,0,0,17,17,19,,,,,,4,0.421,105,001,2019_Mar_14_0933,test_run,3.0.6,60.006175236060336,
7,TDF,TDF_7_vid_070319.wav,,,1,rating_d_final.csv,d,final,,,,,0,0,0,0,0,1,1,0,0,18,18,6,,,,,,5,0.92,105,001,2019_Mar_14_0933,test_run,3.0.6,60.006175236060336,
13,TDF,TDF_13_ljud_070319.wav,,,1,rating_d_final.csv,d,final,,,,,0,0,0,0,0,1,1,0,0,19,19,12,,,,,,6,1.02,105,001,2019_Mar_14_0933,test_run,3.0.6,60.006175236060336,
3,TDF,TDF_3_raad_070319.wav,,,1,rating_d_final.csv,d,final,,,,,0,0,0,0,0,1,1,0,0,20,20,2,,,,,,1,1.254,105,001,2019_Mar_14_0933,test_run,3.0.6,60.006175236060336,
18,TTF,TTF_18_skjut_070319.wav,,,1,rating_d_final.csv,d,final,,,,,0,0,0,0,0,1,1,0,0,21,21,17,,,,,,2,0.72,105,001,2019_Mar_14_0933,test_run,3.0.6,60.006175236060336,
15,TDF,TDF_15_nod_070319.wav,,,1,rating_d_final.csv,d,final,,,,,0,0,0,0,0,1,1,0,0,22,22,14,,,,,,1,1.17,105,001,2019_Mar_14_0933,test_run,3.0.6,60.006175236060336,
30,TTF,TTF_30_slatt_070319.wav,,,1,rating_d_final.csv,d,final,,,,,0,0,0,0,0,1,1,0,0,23,23,29,,,,,,1,0.419,105,001,2019_Mar_14_0933,test_run,3.0.6,60.006175236060336,
8,TDF,TDF_8_nod_070319.wav,,,1,rating_d_final.csv,d,final,,,,,0,0,0,0,0,1,1,0,0,24,24,7,,,,,,7,0.787,105,001,2019_Mar_14_0933,test_run,3.0.6,60.006175236060336,
5,TDF,TDF_5_voad_070319.wav,,,1,rating_d_final.csv,d,final,,,,,0,0,0,0,0,1,1,0,0,25,25,4,,,,,,6,0.62,105,001,2019_Mar_14_0933,test_run,3.0.6,60.006175236060336,
28,TTF,TTF_28_brant_070319.wav,,,1,rating_d_final.csv,d,final,,,,,0,0,0,0,0,1,1,0,0,26,26,27,,,,,,4,0.704,105,001,2019_Mar_14_0933,test_run,3.0.6,60.006175236060336,
27,TTF,TTF_27_sant_070319.wav,,,1,rating_d_final.csv,d,final,,,,,0,0,0,0,0,1,1,0,0,27,27,26,,,,,,6,0.854,105,001,2019_Mar_14_0933,test_run,3.0.6,60.006175236060336,
17,TTF,TTF_17_sket_070319.wav,,,1,rating_d_final.csv,d,final,,,,,0,0,0,0,0,1,1,0,0,28,28,16,,,,,,6,0.52,105,001,2019_Mar_14_0933,test_run,3.0.6,60.006175236060336,
12,TDF,TDF_12_smed_070319.wav,,,1,rating_d_final.csv,d,final,,,,,0,0,0,0,0,1,1,0,0,29,29,11,,,,,,6,0.537,105,001,2019_Mar_14_0933,test_run,3.0.6,60.006175236060336,
23,TTF,TTF_23_hut_070319.wav,,,1,rating_d_final.csv,d,final,,,,,0,0,0,0,0,1,1,0,0,30,30,22,,,,,,4,1.154,105,001,2019_Mar_14_0933,test_run,3.0.6,60.006175236060336,
19,TTF,TTF_19_skoet_070319.wav,,,1,rating_d_final.csv,d,final,,,,,0,0,0,0,0,1,1,0,0,31,31,18,,,,,,7,0.453,105,001,2019_Mar_14_0933,test_run,3.0.6,60.006175236060336,
18,TTI,TTI_18_tum_150219.wav,,,2,rating_d_initial.csv,d,initial,,,,,0,1,1,1,0,0,0,0,0,0,0,17,,,,,,4,0.637,105,001,2019_Mar_14_0933,test_run,3.0.6,60.006175236060336,
6,TDI,TDI_6_deg_150219.wav,,,2,rating_d_initial.csv,d,initial,,,,,0,1,1,1,0,0,0,0,0,1,1,5,,,,,,6,0.92,105,001,2019_Mar_14_0933,test_run,3.0.6,60.006175236060336,
14,TDI,TDI_14_dok_150219.wav,,,2,rating_d_initial.csv,d,initial,,,,,0,1,1,1,0,0,0,0,0,2,2,13,,,,,,1,2.638,105,001,2019_Mar_14_0933,test_run,3.0.6,60.006175236060336,
17,TTI,TTI_17_topp_150219.wav,,,2,rating_d_initial.csv,d,initial,,,,,0,1,1,1,0,0,0,0,0,3,3,16,,,,,,7,0.887,105,001,2019_Mar_14_0933,test_run,3.0.6,60.006175236060336,
3,TDI,TDI_3_dal_150219.wav,,,2,rating_d_initial.csv,d,initial,,,,,0,1,1,1,0,0,0,0,0,4,4,2,,,,,,6,2.021,105,001,2019_Mar_14_0933,test_run,3.0.6,60.006175236060336,
12,TDI,TDI_12_doa_150219.wav,,,2,rating_d_initial.csv,d,initial,,,,,0,1,1,1,0,0,0,0,0,5,5,11,,,,,,3,0.42,105,001,2019_Mar_14_0933,test_run,3.0.6,60.006175236060336,
27,TTI,TTI_27_toem_150219.wav,,,2,rating_d_initial.csv,d,initial,,,,,0,1,1,1,0,0,0,0,0,6,6,26,,,,,,5,1.337,105,001,2019_Mar_14_0933,test_run,3.0.6,60.006175236060336,
23,TTI,TTI_23_toa_150219.wav,,,2,rating_d_initial.csv,d,initial,,,,,0,1,1,1,0,0,0,0,0,7,7,22,,,,,,4,1.704,105,001,2019_Mar_14_0933,test_run,3.0.6,60.006175236060336,
20,TTI,TTI_20_tur_150219.wav,,,2,rating_d_initial.csv,d,initial,,,,,0,1,1,1,0,0,0,0,0,8,8,19,,,,,,7,0.77,105,001,2019_Mar_14_0933,test_run,3.0.6,60.006175236060336,
24,TTI,TTI_24_taack_150219.wav,,,2,rating_d_initial.csv,d,initial,,,,,0,1,1,1,0,0,0,0,0,9,9,23,,,,,,5,0.454,105,001,2019_Mar_14_0933,test_run,3.0.6,60.006175236060336,
22,TTI,TTI_22_ty_150219.wav,,,2,rating_d_initial.csv,d,initial,,,,,0,1,1,1,0,0,0,0,0,10,10,21,,,,,,3,0.42,105,001,2019_Mar_14_0933,test_run,3.0.6,60.006175236060336,
9,TDI,TDI_9_dill_150219.wav,,,2,rating_d_initial.csv,d,initial,,,,,0,1,1,1,0,0,0,0,0,11,11,8,,,,,,7,0.787,105,001,2019_Mar_14_0933,test_run,3.0.6,60.006175236060336,
8,TDI,TDI_8_dia_150219.wav,,,2,rating_d_initial.csv,d,initial,,,,,0,1,1,1,0,0,0,0,0,12,12,7,,,,,,2,0.521,105,001,2019_Mar_14_0933,test_run,3.0.6,60.006175236060336,
25,TTI,TTI_25_taar_150219.wav,,,2,rating_d_initial.csv,d,initial,,,,,0,1,1,1,0,0,0,0,0,13,13,24,,,,,,4,0.787,105,001,2019_Mar_14_0933,test_run,3.0.6,60.006175236060336,
10,TDI,TDI_10_ditt_150219.wav,,,2,rating_d_initial.csv,d,initial,,,,,0,1,1,1,0,0,0,0,0,14,14,9,,,,,,6,0.471,105,001,2019_Mar_14_0933,test_run,3.0.6,60.006175236060336,
19,TTI,TTI_19_tun_150219.wav,,,2,rating_d_initial.csv,d,initial,,,,,0,1,1,1,0,0,0,0,0,15,15,18,,,,,,2,0.72,105,001,2019_Mar_14_0933,test_run,3.0.6,60.006175236060336,
21,TTI,TTI_21_tugg_150219.wav,,,2,rating_d_initial.csv,d,initial,,,,,0,1,1,1,0,0,0,0,0,16,16,20,,,,,,2,0.422,105,001,2019_Mar_14_0933,test_run,3.0.6,60.006175236060336,
15,TTI,TTI_15_tom_150219.wav,,,2,rating_d_initial.csv,d,initial,,,,,0,1,1,1,0,0,0,0,0,17,17,14,,,,,,6,0.603,105,001,2019_Mar_14_0933,test_run,3.0.6,60.006175236060336,
2,TDI,TDI_2_dagg_150219.wav,,,2,rating_d_initial.csv,d,initial,,,,,0,1,1,1,0,0,0,0,0,18,18,1,,,,,,2,0.654,105,001,2019_Mar_14_0933,test_run,3.0.6,60.006175236060336,
4,TDI,TDI_4_dam_150219.wav,,,2,rating_d_initial.csv,d,initial,,,,,0,1,1,1,0,0,0,0,0,19,19,3,,,,,,7,0.47,105,001,2019_Mar_14_0933,test_run,3.0.6,60.006175236060336,
11,TDI,TDI_11_dipp_150219.wav,,,2,rating_d_initial.csv,d,initial,,,,,0,1,1,1,0,0,0,0,0,20,20,10,,,,,,6,0.72,105,001,2019_Mar_14_0933,test_run,3.0.6,60.006175236060336,
26,TTI,TTI_26_toe_150219.wav,,,2,rating_d_initial.csv,d,initial,,,,,0,1,1,1,0,0,0,0,0,21,21,25,,,,,,2,0.437,105,001,2019_Mar_14_0933,test_run,3.0.6,60.006175236060336,
16,TTI,TTI_16_ton_150219.wav,,,2,rating_d_initial.csv,d,initial,,,,,0,1,1,1,0,0,0,0,0,22,22,15,,,,,,6,0.754,105,001,2019_Mar_14_0933,test_run,3.0.6,60.006175236060336,
13,TDI,TDI_13_dog_150219.wav,,,2,rating_d_initial.csv,d,initial,,,,,0,1,1,1,0,0,0,0,0,23,23,12,,,,,,4,0.587,105,001,2019_Mar_14_0933,test_run,3.0.6,60.006175236060336,
1,TDI,TDI_1_dag_150219.wav,,,2,rating_d_initial.csv,d,initial,,,,,0,1,1,1,0,0,0,0,0,24,24,0,,,,,,6,0.62,105,001,2019_Mar_14_0933,test_run,3.0.6,60.006175236060336,
5,TDI,TDI_5_dass_150219.wav,,,2,rating_d_initial.csv,d,initial,,,,,0,1,1,1,0,0,0,0,0,25,25,4,,,,,,6,0.57,105,001,2019_Mar_14_0933,test_run,3.0.6,60.006175236060336,
7,TDI,TDI_7_den_150219.wav,,,2,rating_d_initial.csv,d,initial,,,,,0,1,1,1,0,0,0,0,0,26,26,6,,,,,,5,0.954,105,001,2019_Mar_14_0933,test_run,3.0.6,60.006175236060336,
2,TTI,TTI_2_tagg_150219.wav,,,2,rating_t_initial.csv,t,initial,,,,,0,1,1,1,0,1,1,1,0,0,0,1,,,,,,6,0.688,105,001,2019_Mar_14_0933,test_run,3.0.6,60.006175236060336,
17,TDI,TDI_17_dopp_150219.wav,,,2,rating_t_initial.csv,t,initial,,,,,0,1,1,1,0,1,1,1,0,1,1,16,,,,,,5,0.403,105,001,2019_Mar_14_0933,test_run,3.0.6,60.006175236060336,
9,TTI,TTI_9_till_150219.wav,,,2,rating_t_initial.csv,t,initial,,,,,0,1,1,1,0,1,1,1,0,2,2,8,,,,,,7,1.188,105,001,2019_Mar_14_0933,test_run,3.0.6,60.006175236060336,
5,TTI,TTI_5_tass_150219.wav,,,2,rating_t_initial.csv,t,initial,,,,,0,1,1,1,0,1,1,1,0,3,3,4,,,,,,7,0.404,105,001,2019_Mar_14_0933,test_run,3.0.6,60.006175236060336,
14,TTI,TTI_14_tok_150219.wav,,,2,rating_t_initial.csv,t,initial,,,,,0,1,1,1,0,1,1,1,0,4,4,13,,,,,,7,0.77,105,001,2019_Mar_14_0933,test_run,3.0.6,60.006175236060336,
22,TDI,TDI_22_dy_150219.wav,,,2,rating_t_initial.csv,t,initial,,,,,0,1,1,1,0,1,1,1,0,5,5,21,,,,,,3,0.486,105,001,2019_Mar_14_0933,test_run,3.0.6,60.006175236060336,
7,TTI,TTI_7_tenn_150219.wav,,,2,rating_t_initial.csv,t,initial,,,,,0,1,1,1,0,1,1,1,0,6,6,6,,,,,,6,1.371,105,001,2019_Mar_14_0933,test_run,3.0.6,60.006175236060336,
1,TTI,TTI_1_tag_150219.wav,,,2,rating_t_initial.csv,t,initial,,,,,0,1,1,1,0,1,1,1,0,7,7,0,,,,,,5,0.471,105,001,2019_Mar_14_0933,test_run,3.0.6,60.006175236060336,
19,TDI,TDI_19_dun_150219.wav,,,2,rating_t_initial.csv,t,initial,,,,,0,1,1,1,0,1,1,1,0,8,8,18,,,,,,4,0.688,105,001,2019_Mar_14_0933,test_run,3.0.6,60.006175236060336,
25,TDI,TDI_25_daar_150219.wav,,,2,rating_t_initial.csv,t,initial,,,,,0,1,1,1,0,1,1,1,0,9,9,24,,,,,,7,1.004,105,001,2019_Mar_14_0933,test_run,3.0.6,60.006175236060336,
12,TTI,TTI_12_toa_150219.wav,,,2,rating_t_initial.csv,t,initial,,,,,0,1,1,1,0,1,1,1,0,10,10,11,,,,,,7,1.154,105,001,2019_Mar_14_0933,test_run,3.0.6,60.006175236060336,
21,TDI,TDI_21_dugg_150219.wav,,,2,rating_t_initial.csv,t,initial,,,,,0,1,1,1,0,1,1,1,0,11,11,20,,,,,,6,1.754,105,001,2019_Mar_14_0933,test_run,3.0.6,60.006175236060336,
20,TDI,TDI_20_dur_150219.wav,,,2,rating_t_initial.csv,t,initial,,,,,0,1,1,1,0,1,1,1,0,12,12,19,,,,,,3,3.738,105,001,2019_Mar_14_0933,test_run,3.0.6,60.006175236060336,
11,TTI,TTI_11_tipp_150219.wav,,,2,rating_t_initial.csv,t,initial,,,,,0,1,1,1,0,1,1,1,0,13,13,10,,,,,,6,0.454,105,001,2019_Mar_14_0933,test_run,3.0.6,60.006175236060336,
26,TDI,TDI_26_doe_150219.wav,,,2,rating_t_initial.csv,t,initial,,,,,0,1,1,1,0,1,1,1,0,14,14,25,,,,,,6,0.603,105,001,2019_Mar_14_0933,test_run,3.0.6,60.006175236060336,
23,TDI,TDI_23_doa_150219.wav,,,2,rating_t_initial.csv,t,initial,,,,,0,1,1,1,0,1,1,1,0,15,15,22,,,,,,2,0.904,105,001,2019_Mar_14_0933,test_run,3.0.6,60.006175236060336,
18,TDI,TDI_18_dum_150219.wav,,,2,rating_t_initial.csv,t,initial,,,,,0,1,1,1,0,1,1,1,0,16,16,17,,,,,,2,0.719,105,001,2019_Mar_14_0933,test_run,3.0.6,60.006175236060336,
8,TTI,TTI_8_tia_150219.wav,,,2,rating_t_initial.csv,t,initial,,,,,0,1,1,1,0,1,1,1,0,17,17,7,,,,,,5,0.804,105,001,2019_Mar_14_0933,test_run,3.0.6,60.006175236060336,
6,TTI,TTI_6_teg_150219.wav,,,2,rating_t_initial.csv,t,initial,,,,,0,1,1,1,0,1,1,1,0,18,18,5,,,,,,3,1.303,105,001,2019_Mar_14_0933,test_run,3.0.6,60.006175236060336,
3,TTI,TTI_3_tal_150219.wav,,,2,rating_t_initial.csv,t,initial,,,,,0,1,1,1,0,1,1,1,0,19,19,2,,,,,,3,3.704,105,001,2019_Mar_14_0933,test_run,3.0.6,60.006175236060336,
27,TDI,TDI_27_doem_edit_150219.wav,,,2,rating_t_initial.csv,t,initial,,,,,0,1,1,1,0,1,1,1,0,20,20,26,,,,,,1,0.872,105,001,2019_Mar_14_0933,test_run,3.0.6,60.006175236060336,
10,TTI,TTI_10_titt_150219.wav,,,2,rating_t_initial.csv,t,initial,,,,,0,1,1,1,0,1,1,1,0,21,21,9,,,,,,1,0.837,105,001,2019_Mar_14_0933,test_run,3.0.6,60.006175236060336,
15,TDI,TDI_15_dom_150219.wav,,,2,rating_t_initial.csv,t,initial,,,,,0,1,1,1,0,1,1,1,0,22,22,14,,,,,,2,0.77,105,001,2019_Mar_14_0933,test_run,3.0.6,60.006175236060336,
4,TTI,TTI_4_tam_150219.wav,,,2,rating_t_initial.csv,t,initial,,,,,0,1,1,1,0,1,1,1,0,23,23,3,,,,,,5,0.455,105,001,2019_Mar_14_0933,test_run,3.0.6,60.006175236060336,
16,TDI,TDI_16_don_150219.wav,,,2,rating_t_initial.csv,t,initial,,,,,0,1,1,1,0,1,1,1,0,24,24,15,,,,,,4,1.52,105,001,2019_Mar_14_0933,test_run,3.0.6,60.006175236060336,
24,TDI,TDI_24_daack_150219.wav,,,2,rating_t_initial.csv,t,initial,,,,,0,1,1,1,0,1,1,1,0,25,25,23,,,,,,5,1.088,105,001,2019_Mar_14_0933,test_run,3.0.6,60.006175236060336,
13,TTI,TTI_13_tog_150219.wav,,,2,rating_t_initial.csv,t,initial,,,,,0,1,1,1,0,1,1,1,0,26,26,12,,,,,,3,0.62,105,001,2019_Mar_14_0933,test_run,3.0.6,60.006175236060336,
