item,item_cond,sound,corr_ans,group,block_id,listname,rating_for,position,trials.thisRepN,trials.thisTrialN,trials.thisN,trials.thisIndex,run_block_type.thisRepN,run_block_type.thisTrialN,run_block_type.thisN,run_block_type.thisIndex,routine.thisRepN,routine.thisTrialN,routine.thisN,routine.thisIndex,rating_trials.thisRepN,rating_trials.thisTrialN,rating_trials.thisN,rating_trials.thisIndex,key_resp_1.keys,key_resp_1.rt,key_resp_2.keys,key_resp_2.corr,key_resp_2.rt,rating_1.response,rating_1.rt,participant,session,date,expName,psychopyVersion,frameRate,
,,,,,,,,,,,,,,,,,,,,,,,,,space,30.470667330999277,,,,,,106,001,2019_Mar_14_1004,test_run,3.0.6,60.0089302897123,
57,EFW,EFW_27_analysera_070319.wav,j,c ,,,,,0,0,0,56,,,,,,,,,,,,,,,j,1,2.319720884999697,,,106,001,2019_Mar_14_1004,test_run,3.0.6,60.0089302897123,
82,EFW,EFW_52_framhoalla_070319.wav,j,c ,,,,,0,1,1,81,,,,,,,,,,,,,,,j,1,1.2196699249980156,,,106,001,2019_Mar_14_1004,test_run,3.0.6,60.0089302897123,
167,ENW,ENW_77_somfera_150219.wav,n,c ,,,,,0,2,2,166,,,,,,,,,,,,,,,n,1,0.11985420900236932,,,106,001,2019_Mar_14_1004,test_run,3.0.6,60.0089302897123,
77,EFW,EFW_47_invoanare_070319.wav,j,c ,,,,,0,3,3,76,,,,,,,,,,,,,,,j,1,2.40275539799768,,,106,001,2019_Mar_14_1004,test_run,3.0.6,60.0089302897123,
130,ENW,ENW_40_knipackar_150219.wav,n,c ,,,,,0,4,4,129,,,,,,,,,,,,,,,n,1,0.6694633459992474,,,106,001,2019_Mar_14_1004,test_run,3.0.6,60.0089302897123,
79,EFW,EFW_49_vaasen_070319.wav,j,c ,,,,,0,5,5,78,,,,,,,,,,,,,,,j,1,0.36955647699869587,,,106,001,2019_Mar_14_1004,test_run,3.0.6,60.0089302897123,
89,EFW,EFW_59_filosofin_070319.wav,j,c ,,,,,0,6,6,88,,,,,,,,,,,,,,,j,1,0.8022084670010372,,,106,001,2019_Mar_14_1004,test_run,3.0.6,60.0089302897123,
13,ECW,ECW_13_kanonform_070319.wav,j,c ,,,,,0,7,7,12,,,,,,,,,,,,,,,n,0,2.568866573001287,,,106,001,2019_Mar_14_1004,test_run,3.0.6,60.0089302897123,
66,EFW,EFW_36_haarifroan_070319.wav,j,c ,,,,,0,8,8,65,,,,,,,,,,,,,,,j,1,4.869318158998794,,,106,001,2019_Mar_14_1004,test_run,3.0.6,60.0089302897123,
179,ENW,ENW_89_mikenspoan_150219.wav,n,c ,,,,,0,9,9,178,,,,,,,,,,,,,,,n,1,0.5694554780020553,,,106,001,2019_Mar_14_1004,test_run,3.0.6,60.0089302897123,
85,EFW,EFW_55_oroar_070319.wav,j,c ,,,,,0,10,10,84,,,,,,,,,,,,,,,j,1,0.7356954260030761,,,106,001,2019_Mar_14_1004,test_run,3.0.6,60.0089302897123,
107,ENW,ENW_17_kopynnor_150219.wav,n,c ,,,,,0,11,11,106,,,,,,,,,,,,,,,n,1,0.6195039810008893,,,106,001,2019_Mar_14_1004,test_run,3.0.6,60.0089302897123,
148,ENW,ENW_58_malvossa_150219.wav,n,c ,,,,,0,12,12,147,,,,,,,,,,,,,,,n,1,0.8029653239973413,,,106,001,2019_Mar_14_1004,test_run,3.0.6,60.0089302897123,
180,ENW,ENW_90_skrivinar_150219.wav,n,c ,,,,,0,13,13,179,,,,,,,,,,,,,,,n,1,0.3856573179982661,,,106,001,2019_Mar_14_1004,test_run,3.0.6,60.0089302897123,
141,ENW,ENW_51_skillare_150219.wav,n,c ,,,,,0,14,14,140,,,,,,,,,,,,,,,n,1,0.31910985500144307,,,106,001,2019_Mar_14_1004,test_run,3.0.6,60.0089302897123,
120,ENW,ENW_30_sojera_150219.wav,n,c ,,,,,0,15,15,119,,,,,,,,,,,,,,,n,1,0.48565021399917896,,,106,001,2019_Mar_14_1004,test_run,3.0.6,60.0089302897123,
2,ECW,ECW_2_hinna_070319.wav,j,c ,,,,,0,16,16,1,,,,,,,,,,,,,,,j,1,0.43645300500065787,,,106,001,2019_Mar_14_1004,test_run,3.0.6,60.0089302897123,
15,ECW,ECW_15_tjuvarna_070319.wav,j,c ,,,,,0,17,17,14,,,,,,,,,,,,,,,j,1,0.3687136760017893,,,106,001,2019_Mar_14_1004,test_run,3.0.6,60.0089302897123,
151,ENW,ENW_61_myckskina_150219.wav,n,c ,,,,,0,18,18,150,,,,,,,,,,,,,,,n,1,0.6188046530005522,,,106,001,2019_Mar_14_1004,test_run,3.0.6,60.0089302897123,
140,ENW,ENW_50_omsänare_150219.wav,n,c ,,,,,0,19,19,139,,,,,,,,,,,,,,,n,1,0.7028532520016597,,,106,001,2019_Mar_14_1004,test_run,3.0.6,60.0089302897123,
31,EFW,EFW_1_allmaan_070319.wav,j,c ,,,,,0,20,20,30,,,,,,,,,,,,,,,j,1,0.40269925399843487,,,106,001,2019_Mar_14_1004,test_run,3.0.6,60.0089302897123,
93,ENW,ENW_3_vissorens_150219.wav,n,c ,,,,,0,21,21,92,,,,,,,,,,,,,,,n,1,0.4193252670011134,,,106,001,2019_Mar_14_1004,test_run,3.0.6,60.0089302897123,
134,ENW,ENW_44_inlivna_150219.wav,n,c ,,,,,0,22,22,133,,,,,,,,,,,,,,,n,1,1.0336493190006877,,,106,001,2019_Mar_14_1004,test_run,3.0.6,60.0089302897123,
37,EFW,EFW_7_sociala_070319.wav,j,c ,,,,,0,23,23,36,,,,,,,,,,,,,,,j,1,0.31876949700017576,,,106,001,2019_Mar_14_1004,test_run,3.0.6,60.0089302897123,
9,ECW,ECW_9_spinna_070319.wav,j,c ,,,,,0,24,24,8,,,,,,,,,,,,,,,j,1,0.352379050997115,,,106,001,2019_Mar_14_1004,test_run,3.0.6,60.0089302897123,
175,ENW,ENW_85_forlinna_150219.wav,n,c ,,,,,0,25,25,174,,,,,,,,,,,,,,,n,1,0.35252251799829537,,,106,001,2019_Mar_14_1004,test_run,3.0.6,60.0089302897123,
129,ENW,ENW_39_ljusonar_150219.wav,n,c ,,,,,0,26,26,128,,,,,,,,,,,,,,,n,1,0.369221575998381,,,106,001,2019_Mar_14_1004,test_run,3.0.6,60.0089302897123,
41,EFW,EFW_11_maanniskor_070319.wav,j,c ,,,,,0,27,27,40,,,,,,,,,,,,,,,j,1,0.31887140899925726,,,106,001,2019_Mar_14_1004,test_run,3.0.6,60.0089302897123,
10,ECW,ECW_10_flisa_070319.wav,j,c ,,,,,0,28,28,9,,,,,,,,,,,,,,,j,1,0.8695167139994737,,,106,001,2019_Mar_14_1004,test_run,3.0.6,60.0089302897123,
176,ENW,ENW_86_heloppsin_150219.wav,n,c ,,,,,0,29,29,175,,,,,,,,,,,,,,,n,1,0.30235371199887595,,,106,001,2019_Mar_14_1004,test_run,3.0.6,60.0089302897123,
61,EFW,EFW_31_jaamfoera_070319.wav,j,c ,,,,,0,30,30,60,,,,,,,,,,,,,,,j,1,0.48596376099885674,,,106,001,2019_Mar_14_1004,test_run,3.0.6,60.0089302897123,
171,ENW,ENW_81_persifera_150219.wav,n,c ,,,,,0,31,31,170,,,,,,,,,,,,,,,n,1,1.819120505999308,,,106,001,2019_Mar_14_1004,test_run,3.0.6,60.0089302897123,
164,ENW,ENW_74_malsera_150219.wav,n,c ,,,,,0,32,32,163,,,,,,,,,,,,,,,n,1,0.3672102040000027,,,106,001,2019_Mar_14_1004,test_run,3.0.6,60.0089302897123,
160,ENW,ENW_70_roklarner_150219.wav,n,c ,,,,,0,33,33,159,,,,,,,,,,,,,,,n,1,0.352165894000791,,,106,001,2019_Mar_14_1004,test_run,3.0.6,60.0089302897123,
103,ENW,ENW_13_forvaron_150219.wav,n,c ,,,,,0,34,34,102,,,,,,,,,,,,,,,n,1,0.3526904799982731,,,106,001,2019_Mar_14_1004,test_run,3.0.6,60.0089302897123,
110,ENW,ENW_20_invonen_150219.wav,n,c ,,,,,0,35,35,109,,,,,,,,,,,,,,,n,1,0.3689098319991899,,,106,001,2019_Mar_14_1004,test_run,3.0.6,60.0089302897123,
4,ECW,ECW_4_skraalla_070319.wav,j,c ,,,,,0,36,36,3,,,,,,,,,,,,,,,j,1,0.38637663700137637,,,106,001,2019_Mar_14_1004,test_run,3.0.6,60.0089302897123,
139,ENW,ENW_49_hälskrena_150219.wav,n,c ,,,,,0,37,37,138,,,,,,,,,,,,,,,n,1,0.3524912949978898,,,106,001,2019_Mar_14_1004,test_run,3.0.6,60.0089302897123,
163,ENW,ENW_73_vimmankalla_150219.wav,n,c ,,,,,0,38,38,162,,,,,,,,,,,,,,,n,1,0.3356048719979299,,,106,001,2019_Mar_14_1004,test_run,3.0.6,60.0089302897123,
1,ECW,ECW_1_anka_070319.wav,j,c ,,,,,0,39,39,0,,,,,,,,,,,,,,,j,1,0.30233773899817606,,,106,001,2019_Mar_14_1004,test_run,3.0.6,60.0089302897123,
127,ENW,ENW_37_spallrivet_150219.wav,n,c ,,,,,0,40,40,126,,,,,,,,,,,,,,,n,1,0.35292486699836445,,,106,001,2019_Mar_14_1004,test_run,3.0.6,60.0089302897123,
135,ENW,ENW_45_fammoarens_150219.wav,n,c ,,,,,0,41,41,134,,,,,,,,,,,,,,,n,1,0.318997873000626,,,106,001,2019_Mar_14_1004,test_run,3.0.6,60.0089302897123,
147,ENW,ENW_57_flovanning_150219.wav,n,c ,,,,,0,42,42,146,,,,,,,,,,,,,,,n,1,0.4525649959978182,,,106,001,2019_Mar_14_1004,test_run,3.0.6,60.0089302897123,
90,EFW,EFW_60_insulin_070319.wav,j,c ,,,,,0,43,43,89,,,,,,,,,,,,,,,j,1,0.3522042939985113,,,106,001,2019_Mar_14_1004,test_run,3.0.6,60.0089302897123,
33,EFW,EFW_3_familjen_070319.wav,j,c ,,,,,0,44,44,32,,,,,,,,,,,,,,,j,1,0.08605338999768719,,,106,001,2019_Mar_14_1004,test_run,3.0.6,60.0089302897123,
109,ENW,ENW_19_morloren_150219.wav,n,c ,,,,,0,45,45,108,,,,,,,,,,,,,,,n,1,0.3355320760019822,,,106,001,2019_Mar_14_1004,test_run,3.0.6,60.0089302897123,
156,ENW,ENW_66_voarsmenar_150219.wav,n,c ,,,,,0,46,46,155,,,,,,,,,,,,,,,n,1,0.40038813399951323,,,106,001,2019_Mar_14_1004,test_run,3.0.6,60.0089302897123,
100,ENW,ENW_10_skinnamer_150219.wav,n,c ,,,,,0,47,47,99,,,,,,,,,,,,,,,n,1,0.13553028800015454,,,106,001,2019_Mar_14_1004,test_run,3.0.6,60.0089302897123,
3,ECW,ECW_3_virus_070319.wav,j,c ,,,,,0,48,48,2,,,,,,,,,,,,,,,j,1,0.3357899449983961,,,106,001,2019_Mar_14_1004,test_run,3.0.6,60.0089302897123,
64,EFW,EFW_34_sommar_070319.wav,j,c ,,,,,0,49,49,63,,,,,,,,,,,,,,,j,1,0.36944203000166453,,,106,001,2019_Mar_14_1004,test_run,3.0.6,60.0089302897123,
173,ENW,ENW_83_fyrskovar_150219.wav,n,c ,,,,,0,50,50,172,,,,,,,,,,,,,,,n,1,0.33547487699979683,,,106,001,2019_Mar_14_1004,test_run,3.0.6,60.0089302897123,
133,ENW,ENW_43_axalän_150219.wav,n,c ,,,,,0,51,51,132,,,,,,,,,,,,,,,n,1,0.2524079579998215,,,106,001,2019_Mar_14_1004,test_run,3.0.6,60.0089302897123,
88,EFW,EFW_58_examen_070319.wav,j,c ,,,,,0,52,52,87,,,,,,,,,,,,,,,j,1,0.2357955440020305,,,106,001,2019_Mar_14_1004,test_run,3.0.6,60.0089302897123,
28,ECW,ECW_28_maskinerna_070319.wav,j,c ,,,,,0,53,53,27,,,,,,,,,,,,,,,j,1,0.1859125099981611,,,106,001,2019_Mar_14_1004,test_run,3.0.6,60.0089302897123,
143,ENW,ENW_53_svarmvisso_150219.wav,n,c ,,,,,0,54,54,142,,,,,,,,,,,,,,,n,1,0.2691223149995494,,,106,001,2019_Mar_14_1004,test_run,3.0.6,60.0089302897123,
146,ENW,ENW_56_lysskarna_150219.wav,n,c ,,,,,0,55,55,145,,,,,,,,,,,,,,,n,1,0.30241145299805794,,,106,001,2019_Mar_14_1004,test_run,3.0.6,60.0089302897123,
116,ENW,ENW_26_anufera_150219.wav,n,c ,,,,,0,56,56,115,,,,,,,,,,,,,,,n,1,0.33565175700277905,,,106,001,2019_Mar_14_1004,test_run,3.0.6,60.0089302897123,
40,EFW,EFW_10_laarare_070319.wav,j,c ,,,,,0,57,57,39,,,,,,,,,,,,,,,j,1,0.28602763599701575,,,106,001,2019_Mar_14_1004,test_run,3.0.6,60.0089302897123,
8,ECW,ECW_8_fryshus_070319.wav,j,c ,,,,,0,58,58,7,,,,,,,,,,,,,,,j,1,1.5025432530019316,,,106,001,2019_Mar_14_1004,test_run,3.0.6,60.0089302897123,
67,EFW,EFW_37_foervisso_070319.wav,j,c ,,,,,0,59,59,66,,,,,,,,,,,,,,,j,1,0.30256284899951424,,,106,001,2019_Mar_14_1004,test_run,3.0.6,60.0089302897123,
112,ENW,ENW_22_fjäserna_150219.wav,n,c ,,,,,0,60,60,111,,,,,,,,,,,,,,,n,1,0.3189487769996049,,,106,001,2019_Mar_14_1004,test_run,3.0.6,60.0089302897123,
51,EFW,EFW_21_varierar_070319.wav,j,c ,,,,,0,61,61,50,,,,,,,,,,,,,,,j,1,0.08554968099997495,,,106,001,2019_Mar_14_1004,test_run,3.0.6,60.0089302897123,
7,ECW,ECW_7_marin_070319.wav,j,c ,,,,,0,62,62,6,,,,,,,,,,,,,,,j,1,0.1191378990006342,,,106,001,2019_Mar_14_1004,test_run,3.0.6,60.0089302897123,
49,EFW,EFW_19_roerelse_070319.wav,j,c ,,,,,0,63,63,48,,,,,,,,,,,,,,,j,1,0.30240469699856476,,,106,001,2019_Mar_14_1004,test_run,3.0.6,60.0089302897123,
101,ENW,ENW_11_fränna_150219.wav,n,c ,,,,,0,64,64,100,,,,,,,,,,,,,,,n,1,0.26715840099859633,,,106,001,2019_Mar_14_1004,test_run,3.0.6,60.0089302897123,
55,EFW,EFW_25_informera_070319.wav,j,c ,,,,,0,65,65,54,,,,,,,,,,,,,,,j,1,0.21888896100062993,,,106,001,2019_Mar_14_1004,test_run,3.0.6,60.0089302897123,
81,EFW,EFW_51_seminarier_070319.wav,j,c ,,,,,0,66,66,80,,,,,,,,,,,,,,,j,1,0.06897718199979863,,,106,001,2019_Mar_14_1004,test_run,3.0.6,60.0089302897123,
95,ENW,ENW_5_spoamisk_150219.wav,n,c ,,,,,0,67,67,94,,,,,,,,,,,,,,,n,1,0.16941878299985547,,,106,001,2019_Mar_14_1004,test_run,3.0.6,60.0089302897123,
168,ENW,ENW_78_morvinder_150219.wav,n,c ,,,,,0,68,68,167,,,,,,,,,,,,,,,n,1,0.31874832500034245,,,106,001,2019_Mar_14_1004,test_run,3.0.6,60.0089302897123,
72,EFW,EFW_42_naavaron_070319.wav,j,c ,,,,,0,69,69,71,,,,,,,,,,,,,,,j,1,0.28628297800241853,,,106,001,2019_Mar_14_1004,test_run,3.0.6,60.0089302897123,
155,ENW,ENW_65_hamfylla_150219.wav,n,c ,,,,,0,70,70,154,,,,,,,,,,,,,,,n,1,0.3190451859991299,,,106,001,2019_Mar_14_1004,test_run,3.0.6,60.0089302897123,
74,EFW,EFW_44_ljusa_070319.wav,j,c ,,,,,0,71,71,73,,,,,,,,,,,,,,,j,1,0.40277963299740804,,,106,001,2019_Mar_14_1004,test_run,3.0.6,60.0089302897123,
48,EFW,EFW_18_nummer_070319.wav,j,c ,,,,,0,72,72,47,,,,,,,,,,,,,,,j,1,0.3028468519987655,,,106,001,2019_Mar_14_1004,test_run,3.0.6,60.0089302897123,
58,EFW,EFW_28_olja_070319.wav,j,c ,,,,,0,73,73,57,,,,,,,,,,,,,,,j,1,0.26946780100115575,,,106,001,2019_Mar_14_1004,test_run,3.0.6,60.0089302897123,
14,ECW,ECW_14_excellens_070319.wav,j,c ,,,,,0,74,74,13,,,,,,,,,,,,,,,j,1,0.7193872940006258,,,106,001,2019_Mar_14_1004,test_run,3.0.6,60.0089302897123,
12,ECW,ECW_12_moehippa_070319.wav,j,c ,,,,,0,75,75,11,,,,,,,,,,,,,,,j,1,0.45264229699751013,,,106,001,2019_Mar_14_1004,test_run,3.0.6,60.0089302897123,
47,EFW,EFW_17_januari_070319.wav,j,c ,,,,,0,76,76,46,,,,,,,,,,,,,,,j,1,0.3172220819978975,,,106,001,2019_Mar_14_1004,test_run,3.0.6,60.0089302897123,
19,ECW,ECW_19_persiska_070319.wav,j,c ,,,,,0,77,77,18,,,,,,,,,,,,,,,j,1,0.269513506002113,,,106,001,2019_Mar_14_1004,test_run,3.0.6,60.0089302897123,
136,ENW,ENW_46_pommera_150219.wav,n,c ,,,,,0,78,78,135,,,,,,,,,,,,,,,n,1,0.9027436879987363,,,106,001,2019_Mar_14_1004,test_run,3.0.6,60.0089302897123,
6,ECW,ECW_6_sila_070319.wav,j,c ,,,,,0,79,79,5,,,,,,,,,,,,,,,n,0,0.7190446170025098,,,106,001,2019_Mar_14_1004,test_run,3.0.6,60.0089302897123,
115,ENW,ENW_25_affierar_150219.wav,n,c ,,,,,0,80,80,114,,,,,,,,,,,,,,,n,1,0.36932665099811857,,,106,001,2019_Mar_14_1004,test_run,3.0.6,60.0089302897123,
59,EFW,EFW_29_formen_070319.wav,j,c ,,,,,0,81,81,58,,,,,,,,,,,,,,,j,1,0.2691388179991918,,,106,001,2019_Mar_14_1004,test_run,3.0.6,60.0089302897123,
108,ENW,ENW_18_moalursena_150219.wav,n,c ,,,,,0,82,82,107,,,,,,,,,,,,,,,n,1,0.3527969229980954,,,106,001,2019_Mar_14_1004,test_run,3.0.6,60.0089302897123,
80,EFW,EFW_50_snaalla_070319.wav,j,c ,,,,,0,83,83,79,,,,,,,,,,,,,,,j,1,0.11911181299728923,,,106,001,2019_Mar_14_1004,test_run,3.0.6,60.0089302897123,
17,ECW,ECW_17_majonnaas_070319.wav,j,c ,,,,,0,84,84,16,,,,,,,,,,,,,,,j,1,0.5694858300012129,,,106,001,2019_Mar_14_1004,test_run,3.0.6,60.0089302897123,
65,EFW,EFW_35_affaarer_070319.wav,j,c ,,,,,0,85,85,64,,,,,,,,,,,,,,,j,1,0.2855568190025224,,,106,001,2019_Mar_14_1004,test_run,3.0.6,60.0089302897123,
144,ENW,ENW_54_lomering_150219.wav,n,c ,,,,,0,86,86,143,,,,,,,,,,,,,,,n,1,0.36955472200133954,,,106,001,2019_Mar_14_1004,test_run,3.0.6,60.0089302897123,
73,EFW,EFW_43_halvoar_070319.wav,j,c ,,,,,0,87,87,72,,,,,,,,,,,,,,,j,1,0.43607043699739734,,,106,001,2019_Mar_14_1004,test_run,3.0.6,60.0089302897123,
177,ENW,ENW_87_kloavare_150219.wav,n,c ,,,,,0,88,88,176,,,,,,,,,,,,,,,n,1,0.9522862960002385,,,106,001,2019_Mar_14_1004,test_run,3.0.6,60.0089302897123,
104,ENW,ENW_14_kärmenor_150219.wav,n,c ,,,,,0,89,89,103,,,,,,,,,,,,,,,n,1,0.3691008950008836,,,106,001,2019_Mar_14_1004,test_run,3.0.6,60.0089302897123,
161,ENW,ENW_71_forskäckla_150219.wav,n,c ,,,,,0,90,90,160,,,,,,,,,,,,,,,n,1,0.35286367800290463,,,106,001,2019_Mar_14_1004,test_run,3.0.6,60.0089302897123,
46,EFW,EFW_16_lyssna_070319.wav,j,c ,,,,,0,91,91,45,,,,,,,,,,,,,,,j,1,0.233619168997393,,,106,001,2019_Mar_14_1004,test_run,3.0.6,60.0089302897123,
78,EFW,EFW_48_varifroan_070319.wav,j,c ,,,,,0,92,92,77,,,,,,,,,,,,,,,j,1,0.25289521800004877,,,106,001,2019_Mar_14_1004,test_run,3.0.6,60.0089302897123,
34,EFW,EFW_4_foerminska_070319.wav,j,c ,,,,,0,93,93,33,,,,,,,,,,,,,,,j,1,0.2361364770004002,,,106,001,2019_Mar_14_1004,test_run,3.0.6,60.0089302897123,
11,ECW,ECW_11_foersoeka_070319.wav,j,c ,,,,,0,94,94,10,,,,,,,,,,,,,,,j,1,0.3505465890011692,,,106,001,2019_Mar_14_1004,test_run,3.0.6,60.0089302897123,
76,EFW,EFW_46_foerhoer_070319.wav,j,c ,,,,,0,95,95,75,,,,,,,,,,,,,,,j,1,0.10215434099882259,,,106,001,2019_Mar_14_1004,test_run,3.0.6,60.0089302897123,
35,EFW,EFW_5_samhaalle_070319.wav,j,c ,,,,,0,96,96,34,,,,,,,,,,,,,,,j,1,0.33583207000265247,,,106,001,2019_Mar_14_1004,test_run,3.0.6,60.0089302897123,
165,ENW,ENW_75_foarskining_150219.wav,n,c ,,,,,0,97,97,164,,,,,,,,,,,,,,,n,1,0.28608456599977217,,,106,001,2019_Mar_14_1004,test_run,3.0.6,60.0089302897123,
20,ECW,ECW_20_sommarspel_070319.wav,j,c ,,,,,0,98,98,19,,,,,,,,,,,,,,,j,1,0.2838702330009255,,,106,001,2019_Mar_14_1004,test_run,3.0.6,60.0089302897123,
87,EFW,EFW_57_loenerna_070319.wav,j,c ,,,,,0,99,99,86,,,,,,,,,,,,,,,j,1,0.3191569699993124,,,106,001,2019_Mar_14_1004,test_run,3.0.6,60.0089302897123,
62,EFW,EFW_32_fyller_070319.wav,j,c ,,,,,0,100,100,61,,,,,,,,,,,,,,,n,0,2.685793199001637,,,106,001,2019_Mar_14_1004,test_run,3.0.6,60.0089302897123,
50,EFW,EFW_20_fenomen_070319.wav,j,c ,,,,,0,101,101,49,,,,,,,,,,,,,,,j,1,0.3186882820009487,,,106,001,2019_Mar_14_1004,test_run,3.0.6,60.0089302897123,
70,EFW,EFW_40_miljoner_070319.wav,j,c ,,,,,0,102,102,69,,,,,,,,,,,,,,,j,1,0.23623928499728208,,,106,001,2019_Mar_14_1004,test_run,3.0.6,60.0089302897123,
169,ENW,ENW_79_lyxmare_150219.wav,n,c ,,,,,0,103,103,168,,,,,,,,,,,,,,,n,1,0.3019254729988461,,,106,001,2019_Mar_14_1004,test_run,3.0.6,60.0089302897123,
123,ENW,ENW_33_froamation_150219.wav,n,c ,,,,,0,104,104,122,,,,,,,,,,,,,,,n,1,0.3356277070015494,,,106,001,2019_Mar_14_1004,test_run,3.0.6,60.0089302897123,
154,ENW,ENW_64_havskvare_150219.wav,n,c ,,,,,0,105,105,153,,,,,,,,,,,,,,,n,1,0.3361176840007829,,,106,001,2019_Mar_14_1004,test_run,3.0.6,60.0089302897123,
125,ENW,ENW_35_nymaljen_150219.wav,n,c ,,,,,0,106,106,124,,,,,,,,,,,,,,,n,1,0.4029876660024456,,,106,001,2019_Mar_14_1004,test_run,3.0.6,60.0089302897123,
63,EFW,EFW_33_elva_070319.wav,j,c ,,,,,0,107,107,62,,,,,,,,,,,,,,,j,1,0.285808493001241,,,106,001,2019_Mar_14_1004,test_run,3.0.6,60.0089302897123,
22,ECW,ECW_22_anonyma_070319.wav,j,c ,,,,,0,108,108,21,,,,,,,,,,,,,,,j,1,0.3355591849976918,,,106,001,2019_Mar_14_1004,test_run,3.0.6,60.0089302897123,
39,EFW,EFW_9_infektion_070319.wav,j,c ,,,,,0,109,109,38,,,,,,,,,,,,,,,j,1,0.3026196809987596,,,106,001,2019_Mar_14_1004,test_run,3.0.6,60.0089302897123,
166,ENW,ENW_76_omfläskor_150219.wav,n,c ,,,,,0,110,110,165,,,,,,,,,,,,,,,n,1,0.3669791879983677,,,106,001,2019_Mar_14_1004,test_run,3.0.6,60.0089302897123,
96,ENW,ENW_6_vilfroaser_150219.wav,n,c ,,,,,0,111,111,95,,,,,,,,,,,,,,,n,1,0.33617752400095924,,,106,001,2019_Mar_14_1004,test_run,3.0.6,60.0089302897123,
162,ENW,ENW_72_urskecken_150219.wav,n,c ,,,,,0,112,112,161,,,,,,,,,,,,,,,n,1,0.06948885200108634,,,106,001,2019_Mar_14_1004,test_run,3.0.6,60.0089302897123,
26,ECW,ECW_26_kroenikoeren_070319.wav,j,c ,,,,,0,113,113,25,,,,,,,,,,,,,,,j,1,0.9191007369990984,,,106,001,2019_Mar_14_1004,test_run,3.0.6,60.0089302897123,
122,ENW,ENW_32_fonering_150219.wav,n,c ,,,,,0,114,114,121,,,,,,,,,,,,,,,n,1,1.7856852499971865,,,106,001,2019_Mar_14_1004,test_run,3.0.6,60.0089302897123,
138,ENW,ENW_48_skyjamsen_150219.wav,n,c ,,,,,0,115,115,137,,,,,,,,,,,,,,,n,1,0.30279797700131894,,,106,001,2019_Mar_14_1004,test_run,3.0.6,60.0089302897123,
170,ENW,ENW_80_tjarfera_150219.wav,n,c ,,,,,0,116,116,169,,,,,,,,,,,,,,,n,1,0.5690315329993609,,,106,001,2019_Mar_14_1004,test_run,3.0.6,60.0089302897123,
84,EFW,EFW_54_romaner_070319.wav,j,c ,,,,,0,117,117,83,,,,,,,,,,,,,,,j,1,0.1695776289998321,,,106,001,2019_Mar_14_1004,test_run,3.0.6,60.0089302897123,
119,ENW,ENW_29_uppskira_150219.wav,n,c ,,,,,0,118,118,118,,,,,,,,,,,,,,,n,1,0.3193373159992916,,,106,001,2019_Mar_14_1004,test_run,3.0.6,60.0089302897123,
24,ECW,ECW_24_fysiker_070319.wav,j,c ,,,,,0,119,119,23,,,,,,,,,,,,,,,j,1,0.3357806289968721,,,106,001,2019_Mar_14_1004,test_run,3.0.6,60.0089302897123,
42,EFW,EFW_12_foeremoal_070319.wav,j,c ,,,,,0,120,120,41,,,,,,,,,,,,,,,j,1,0.33626645999902394,,,106,001,2019_Mar_14_1004,test_run,3.0.6,60.0089302897123,
97,ENW,ENW_7_flasera_150219.wav,n,c ,,,,,0,121,121,96,,,,,,,,,,,,,,,n,1,0.3024699440029508,,,106,001,2019_Mar_14_1004,test_run,3.0.6,60.0089302897123,
105,ENW,ENW_15_forfeckla_150219.wav,n,c ,,,,,0,122,122,104,,,,,,,,,,,,,,,n,1,0.5858462159994815,,,106,001,2019_Mar_14_1004,test_run,3.0.6,60.0089302897123,
172,ENW,ENW_82_värskappa_150219.wav,n,c ,,,,,0,123,123,171,,,,,,,,,,,,,,,n,1,0.4021274020014971,,,106,001,2019_Mar_14_1004,test_run,3.0.6,60.0089302897123,
38,EFW,EFW_8_samman_070319.wav,j,c ,,,,,0,124,124,37,,,,,,,,,,,,,,,j,1,0.3022591829976591,,,106,001,2019_Mar_14_1004,test_run,3.0.6,60.0089302897123,
124,ENW,ENW_34_jomera_150219.wav,n,c ,,,,,0,125,125,123,,,,,,,,,,,,,,,n,1,0.26876634499785723,,,106,001,2019_Mar_14_1004,test_run,3.0.6,60.0089302897123,
44,EFW,EFW_14_foersoeken_070319.wav,j,c ,,,,,0,126,126,43,,,,,,,,,,,,,,,j,1,0.2692904519972217,,,106,001,2019_Mar_14_1004,test_run,3.0.6,60.0089302897123,
29,ECW,ECW_29_mejerier_070319.wav,j,c ,,,,,0,127,127,28,,,,,,,,,,,,,,,j,1,0.2525330179996672,,,106,001,2019_Mar_14_1004,test_run,3.0.6,60.0089302897123,
94,ENW,ENW_4_kyllfaren_150219.wav,n,c ,,,,,0,128,128,93,,,,,,,,,,,,,,,n,1,0.38546785000289674,,,106,001,2019_Mar_14_1004,test_run,3.0.6,60.0089302897123,
106,ENW,ENW_16_rolinkar_150219.wav,n,c ,,,,,0,129,129,105,,,,,,,,,,,,,,,n,1,0.3524817890029226,,,106,001,2019_Mar_14_1004,test_run,3.0.6,60.0089302897123,
43,EFW,EFW_13_elever_070319.wav,j,c ,,,,,0,130,130,42,,,,,,,,,,,,,,,j,1,0.2526331079970987,,,106,001,2019_Mar_14_1004,test_run,3.0.6,60.0089302897123,
16,ECW,ECW_16_skinskalle_070319.wav,j,c ,,,,,0,131,131,15,,,,,,,,,,,,,,,j,1,0.7853851040017616,,,106,001,2019_Mar_14_1004,test_run,3.0.6,60.0089302897123,
159,ENW,ENW_69_mjohusa_150219.wav,n,c ,,,,,0,132,132,158,,,,,,,,,,,,,,,n,1,0.2187601330006146,,,106,001,2019_Mar_14_1004,test_run,3.0.6,60.0089302897123,
152,ENW,ENW_62_ljullepilja_150219.wav,n,c ,,,,,0,133,133,151,,,,,,,,,,,,,,,n,1,0.33382464199894457,,,106,001,2019_Mar_14_1004,test_run,3.0.6,60.0089302897123,
60,EFW,EFW_30_officiella_070319.wav,j,c ,,,,,0,134,134,59,,,,,,,,,,,,,,,j,1,0.2524067539998214,,,106,001,2019_Mar_14_1004,test_run,3.0.6,60.0089302897123,
145,ENW,ENW_55_invaskin_150219.wav,n,c ,,,,,0,135,135,144,,,,,,,,,,,,,,,n,1,0.33636612500049523,,,106,001,2019_Mar_14_1004,test_run,3.0.6,60.0089302897123,
102,ENW,ENW_12_snälmola_150219.wav,n,c ,,,,,0,136,136,101,,,,,,,,,,,,,,,n,1,0.3361668390025443,,,106,001,2019_Mar_14_1004,test_run,3.0.6,60.0089302897123,
27,ECW,ECW_27_panorama_070319.wav,j,c ,,,,,0,137,137,26,,,,,,,,,,,,,,,j,1,0.25286229199991794,,,106,001,2019_Mar_14_1004,test_run,3.0.6,60.0089302897123,
53,EFW,EFW_23_aamne_070319.wav,j,c ,,,,,0,138,138,52,,,,,,,,,,,,,,,j,1,0.2857563699981256,,,106,001,2019_Mar_14_1004,test_run,3.0.6,60.0089302897123,
114,ENW,ENW_24_samjoner_150219.wav,n,c ,,,,,0,139,139,113,,,,,,,,,,,,,,,n,1,0.26915114099756465,,,106,001,2019_Mar_14_1004,test_run,3.0.6,60.0089302897123,
153,ENW,ENW_63_femyrisk_150219.wav,n,c ,,,,,0,140,140,152,,,,,,,,,,,,,,,n,1,0.269492250001349,,,106,001,2019_Mar_14_1004,test_run,3.0.6,60.0089302897123,
113,ENW,ENW_23_allsänning_150219.wav,n,c ,,,,,0,141,141,112,,,,,,,,,,,,,,,n,1,0.01915000000008149,,,106,001,2019_Mar_14_1004,test_run,3.0.6,60.0089302897123,
23,ECW,ECW_23_maximal_070319.wav,j,c ,,,,,0,142,142,22,,,,,,,,,,,,,,,j,1,0.23573459500039462,,,106,001,2019_Mar_14_1004,test_run,3.0.6,60.0089302897123,
126,ENW,ENW_36_skymlosa_150219.wav,n,c ,,,,,0,143,143,125,,,,,,,,,,,,,,,n,1,0.2520069890015293,,,106,001,2019_Mar_14_1004,test_run,3.0.6,60.0089302897123,
18,ECW,ECW_18_morkulla_070319.wav,j,c ,,,,,0,144,144,17,,,,,,,,,,,,,,,j,1,0.6692085020004015,,,106,001,2019_Mar_14_1004,test_run,3.0.6,60.0089302897123,
52,EFW,EFW_22_normala_070319.wav,j,c ,,,,,0,145,145,51,,,,,,,,,,,,,,,j,1,0.35238170600132435,,,106,001,2019_Mar_14_1004,test_run,3.0.6,60.0089302897123,
45,EFW,EFW_15_oeverens_070319.wav,j,c ,,,,,0,146,146,44,,,,,,,,,,,,,,,j,1,0.052108154999586986,,,106,001,2019_Mar_14_1004,test_run,3.0.6,60.0089302897123,
91,ENW,ENW_1_norsimerar_150219.wav,n,c ,,,,,0,147,147,90,,,,,,,,,,,,,,,n,1,0.23628738900151802,,,106,001,2019_Mar_14_1004,test_run,3.0.6,60.0089302897123,
71,EFW,EFW_41_infinna_070319.wav,j,c ,,,,,0,148,148,70,,,,,,,,,,,,,,,j,1,0.2525148179993266,,,106,001,2019_Mar_14_1004,test_run,3.0.6,60.0089302897123,
111,ENW,ENW_21_tjulning_150219.wav,n,c ,,,,,0,149,149,110,,,,,,,,,,,,,,,j,0,1.9023393679999572,,,106,001,2019_Mar_14_1004,test_run,3.0.6,60.0089302897123,
142,ENW,ENW_52_filofyll_150219.wav,n,c ,,,,,0,150,150,141,,,,,,,,,,,,,,,n,1,0.2692621499991219,,,106,001,2019_Mar_14_1004,test_run,3.0.6,60.0089302897123,
5,ECW,ECW_5_kamma_070319.wav,j,c ,,,,,0,151,151,4,,,,,,,,,,,,,,,j,1,0.7525033049969352,,,106,001,2019_Mar_14_1004,test_run,3.0.6,60.0089302897123,
86,EFW,EFW_56_mormor_070319.wav,j,c ,,,,,0,152,152,85,,,,,,,,,,,,,,,j,1,0.20230236899806187,,,106,001,2019_Mar_14_1004,test_run,3.0.6,60.0089302897123,
69,EFW,EFW_39_foersvara_070319.wav,j,c ,,,,,0,153,153,68,,,,,,,,,,,,,,,j,1,0.11911639400204876,,,106,001,2019_Mar_14_1004,test_run,3.0.6,60.0089302897123,
56,EFW,EFW_26_armarna_070319.wav,j,c ,,,,,0,154,154,55,,,,,,,,,,,,,,,j,1,0.30250118499679957,,,106,001,2019_Mar_14_1004,test_run,3.0.6,60.0089302897123,
25,ECW,ECW_25_oeverfoeras_070319.wav,j,c ,,,,,0,155,155,24,,,,,,,,,,,,,,,j,1,0.3194922869988659,,,106,001,2019_Mar_14_1004,test_run,3.0.6,60.0089302897123,
131,ENW,ENW_41_vessmaren_150219.wav,n,c ,,,,,0,156,156,130,,,,,,,,,,,,,,,n,1,0.26903331500216154,,,106,001,2019_Mar_14_1004,test_run,3.0.6,60.0089302897123,
98,ENW,ENW_8_haväras_150219.wav,n,c ,,,,,0,157,157,97,,,,,,,,,,,,,,,n,1,0.3354506180003227,,,106,001,2019_Mar_14_1004,test_run,3.0.6,60.0089302897123,
36,EFW,EFW_6_massa_070319.wav,j,c ,,,,,0,158,158,35,,,,,,,,,,,,,,,j,1,0.2520076830005564,,,106,001,2019_Mar_14_1004,test_run,3.0.6,60.0089302897123,
128,ENW,ENW_38_roakanier_150219.wav,n,c ,,,,,0,159,159,127,,,,,,,,,,,,,,,n,1,0.2857556239978294,,,106,001,2019_Mar_14_1004,test_run,3.0.6,60.0089302897123,
118,ENW,ENW_28_läkermask_150219.wav,n,c ,,,,,0,160,160,117,,,,,,,,,,,,,,,n,1,0.3692251960019348,,,106,001,2019_Mar_14_1004,test_run,3.0.6,60.0089302897123,
149,ENW,ENW_59_kyrkmänning_150219.wav,n,c ,,,,,0,161,161,148,,,,,,,,,,,,,,,n,1,0.952436845000193,,,106,001,2019_Mar_14_1004,test_run,3.0.6,60.0089302897123,
83,EFW,EFW_53_sovrum_070319.wav,j,c ,,,,,0,162,162,82,,,,,,,,,,,,,,,j,1,0.2858455809982843,,,106,001,2019_Mar_14_1004,test_run,3.0.6,60.0089302897123,
92,ENW,ENW_2_overralka_150219.wav,n,c ,,,,,0,163,163,91,,,,,,,,,,,,,,,n,1,0.28589431699947454,,,106,001,2019_Mar_14_1004,test_run,3.0.6,60.0089302897123,
30,ECW,ECW_30_recensioner_070319.wav,j,c ,,,,,0,164,164,29,,,,,,,,,,,,,,,j,1,0.18588762400031555,,,106,001,2019_Mar_14_1004,test_run,3.0.6,60.0089302897123,
117,ENW,ENW_27_lyssvinner_150219.wav,n,c ,,,,,0,165,165,116,,,,,,,,,,,,,,,n,1,0.2860836960026063,,,106,001,2019_Mar_14_1004,test_run,3.0.6,60.0089302897123,
68,EFW,EFW_38_foerefoell_070319.wav,j,c ,,,,,0,166,166,67,,,,,,,,,,,,,,,j,1,0.25034068200329784,,,106,001,2019_Mar_14_1004,test_run,3.0.6,60.0089302897123,
21,ECW,ECW_21_husera_070319.wav,j,c ,,,,,0,167,167,20,,,,,,,,,,,,,,,j,1,0.16893059799986077,,,106,001,2019_Mar_14_1004,test_run,3.0.6,60.0089302897123,
132,ENW,ENW_42_hamsforing_150219.wav,n,c ,,,,,0,168,168,131,,,,,,,,,,,,,,,n,1,0.26720316899809404,,,106,001,2019_Mar_14_1004,test_run,3.0.6,60.0089302897123,
75,EFW,EFW_45_innanfoer_070319.wav,j,c ,,,,,0,169,169,74,,,,,,,,,,,,,,,j,1,0.53648766400147,,,106,001,2019_Mar_14_1004,test_run,3.0.6,60.0089302897123,
150,ENW,ENW_60_lackpenar_150219.wav,n,c ,,,,,0,170,170,149,,,,,,,,,,,,,,,n,1,0.30229599800077267,,,106,001,2019_Mar_14_1004,test_run,3.0.6,60.0089302897123,
54,EFW,EFW_24_foersvinner_070319.wav,j,c ,,,,,0,171,171,53,,,,,,,,,,,,,,,j,1,0.03602540500287432,,,106,001,2019_Mar_14_1004,test_run,3.0.6,60.0089302897123,
137,ENW,ENW_47_oafläppen_150219.wav,n,c ,,,,,0,172,172,136,,,,,,,,,,,,,,,n,1,0.15206365799895138,,,106,001,2019_Mar_14_1004,test_run,3.0.6,60.0089302897123,
32,EFW,EFW_2_snarare_070319.wav,j,c ,,,,,0,173,173,31,,,,,,,,,,,,,,,j,1,0.25216019400249934,,,106,001,2019_Mar_14_1004,test_run,3.0.6,60.0089302897123,
178,ENW,ENW_88_marsifen_150219.wav,n,c ,,,,,0,174,174,177,,,,,,,,,,,,,,,n,1,0.3527473620015371,,,106,001,2019_Mar_14_1004,test_run,3.0.6,60.0089302897123,
174,ENW,ENW_84_hurmarna_150219.wav,n,c ,,,,,0,175,175,173,,,,,,,,,,,,,,,n,1,0.2854830470023444,,,106,001,2019_Mar_14_1004,test_run,3.0.6,60.0089302897123,
158,ENW,ENW_68_presionar_150219.wav,n,c ,,,,,0,176,176,157,,,,,,,,,,,,,,,n,1,0.3356919689977076,,,106,001,2019_Mar_14_1004,test_run,3.0.6,60.0089302897123,
157,ENW,ENW_67_oafreskar_150219.wav,n,c ,,,,,0,177,177,156,,,,,,,,,,,,,,,n,1,0.25221272199996747,,,106,001,2019_Mar_14_1004,test_run,3.0.6,60.0089302897123,
99,ENW,ENW_9_samlemor_150219.wav,n,c ,,,,,0,178,178,98,,,,,,,,,,,,,,,n,1,0.2695448659978865,,,106,001,2019_Mar_14_1004,test_run,3.0.6,60.0089302897123,
121,ENW,ENW_31_romation_150219.wav,n,c ,,,,,0,179,179,120,,,,,,,,,,,,,,,n,1,0.3022035530011635,,,106,001,2019_Mar_14_1004,test_run,3.0.6,60.0089302897123,
5,TDF,TDF_5_voad_070319.wav,,,1,rating_d_final.csv,d,final,,,,,0,0,0,0,0,0,0,0,0,0,0,4,,,,,,7,24.52,106,001,2019_Mar_14_1004,test_run,3.0.6,60.0089302897123,
27,TTF,TTF_27_sant_070319.wav,,,1,rating_d_final.csv,d,final,,,,,0,0,0,0,0,0,0,0,0,1,1,26,,,,,,1,6.705,106,001,2019_Mar_14_1004,test_run,3.0.6,60.0089302897123,
11,TDF,TDF_11_svid_070319.wav,,,1,rating_d_final.csv,d,final,,,,,0,0,0,0,0,0,0,0,0,2,2,10,,,,,,1,7.904,106,001,2019_Mar_14_1004,test_run,3.0.6,60.0089302897123,
16,TDF,TDF_16_fond_070319.wav,,,1,rating_d_final.csv,d,final,,,,,0,0,0,0,0,0,0,0,0,3,3,15,,,,,,7,2.77,106,001,2019_Mar_14_1004,test_run,3.0.6,60.0089302897123,
26,TTF,TTF_26_rymt_070319.wav,,,1,rating_d_final.csv,d,final,,,,,0,0,0,0,0,0,0,0,0,4,4,25,,,,,,1,2.787,106,001,2019_Mar_14_1004,test_run,3.0.6,60.0089302897123,
29,TTF,TTF_29_bett_070319.wav,,,1,rating_d_final.csv,d,final,,,,,0,0,0,0,0,0,0,0,0,5,5,28,,,,,,1,3.437,106,001,2019_Mar_14_1004,test_run,3.0.6,60.0089302897123,
2,TDF,TDF_2_ved_070319.wav,,,1,rating_d_final.csv,d,final,,,,,0,0,0,0,0,0,0,0,0,6,6,1,,,,,,7,7.219,106,001,2019_Mar_14_1004,test_run,3.0.6,60.0089302897123,
23,TTF,TTF_23_hut_070319.wav,,,1,rating_d_final.csv,d,final,,,,,0,0,0,0,0,0,0,0,0,7,7,22,,,,,,1,2.404,106,001,2019_Mar_14_1004,test_run,3.0.6,60.0089302897123,
14,TDF,TDF_14_mod_070319.wav,,,1,rating_d_final.csv,d,final,,,,,0,0,0,0,0,0,0,0,0,8,8,13,,,,,,7,1.32,106,001,2019_Mar_14_1004,test_run,3.0.6,60.0089302897123,
7,TDF,TDF_7_vid_070319.wav,,,1,rating_d_final.csv,d,final,,,,,0,0,0,0,0,0,0,0,0,9,9,6,,,,,,1,4.188,106,001,2019_Mar_14_1004,test_run,3.0.6,60.0089302897123,
28,TTF,TTF_28_brant_070319.wav,,,1,rating_d_final.csv,d,final,,,,,0,0,0,0,0,0,0,0,0,10,10,27,,,,,,1,1.338,106,001,2019_Mar_14_1004,test_run,3.0.6,60.0089302897123,
12,TDF,TDF_12_smed_070319.wav,,,1,rating_d_final.csv,d,final,,,,,0,0,0,0,0,0,0,0,0,11,11,11,,,,,,7,2.603,106,001,2019_Mar_14_1004,test_run,3.0.6,60.0089302897123,
19,TTF,TTF_19_skoet_070319.wav,,,1,rating_d_final.csv,d,final,,,,,0,0,0,0,0,0,0,0,0,12,12,18,,,,,,1,6.137,106,001,2019_Mar_14_1004,test_run,3.0.6,60.0089302897123,
3,TDF,TDF_3_raad_070319.wav,,,1,rating_d_final.csv,d,final,,,,,0,0,0,0,0,0,0,0,0,13,13,2,,,,,,4,6.32,106,001,2019_Mar_14_1004,test_run,3.0.6,60.0089302897123,
1,TDF,TDF_1_rid_070319.wav,,,1,rating_d_final.csv,d,final,,,,,0,0,0,0,0,0,0,0,0,14,14,0,,,,,,4,5.587,106,001,2019_Mar_14_1004,test_run,3.0.6,60.0089302897123,
15,TDF,TDF_15_nod_070319.wav,,,1,rating_d_final.csv,d,final,,,,,0,0,0,0,0,0,0,0,0,15,15,14,,,,,,7,3.237,106,001,2019_Mar_14_1004,test_run,3.0.6,60.0089302897123,
4,TDF,TDF_4_rod_070319.wav,,,1,rating_d_final.csv,d,final,,,,,0,0,0,0,0,0,0,0,0,16,16,3,,,,,,7,2.537,106,001,2019_Mar_14_1004,test_run,3.0.6,60.0089302897123,
31,TTF,TTF_31_brott_070319.wav,,,1,rating_d_final.csv,d,final,,,,,0,0,0,0,0,0,0,0,0,17,17,30,,,,,,1,1.138,106,001,2019_Mar_14_1004,test_run,3.0.6,60.0089302897123,
10,TDF,TDF_10_brod_070319.wav,,,1,rating_d_final.csv,d,final,,,,,0,0,0,0,0,0,0,0,0,18,18,9,,,,,,6,5.688,106,001,2019_Mar_14_1004,test_run,3.0.6,60.0089302897123,
20,TTF,TTF_20_got_070319.wav,,,1,rating_d_final.csv,d,final,,,,,0,0,0,0,0,0,0,0,0,19,19,19,,,,,,1,1.688,106,001,2019_Mar_14_1004,test_run,3.0.6,60.0089302897123,
6,TDF,TDF_6_voard_070319.wav,,,1,rating_d_final.csv,d,final,,,,,0,0,0,0,0,0,0,0,0,20,20,5,,,,,,6,9.62,106,001,2019_Mar_14_1004,test_run,3.0.6,60.0089302897123,
30,TTF,TTF_30_slatt_070319.wav,,,1,rating_d_final.csv,d,final,,,,,0,0,0,0,0,0,0,0,0,21,21,29,,,,,,1,1.154,106,001,2019_Mar_14_1004,test_run,3.0.6,60.0089302897123,
21,TTF,TTF_21_gjoet_070319.wav,,,1,rating_d_final.csv,d,final,,,,,0,0,0,0,0,0,0,0,0,22,22,20,,,,,,1,0.938,106,001,2019_Mar_14_1004,test_run,3.0.6,60.0089302897123,
18,TTF,TTF_18_skjut_070319.wav,,,1,rating_d_final.csv,d,final,,,,,0,0,0,0,0,0,0,0,0,23,23,17,,,,,,1,1.037,106,001,2019_Mar_14_1004,test_run,3.0.6,60.0089302897123,
25,TTF,TTF_25_synt_070319.wav,,,1,rating_d_final.csv,d,final,,,,,0,0,0,0,0,0,0,0,0,24,24,24,,,,,,1,0.804,106,001,2019_Mar_14_1004,test_run,3.0.6,60.0089302897123,
13,TDF,TDF_13_ljud_070319.wav,,,1,rating_d_final.csv,d,final,,,,,0,0,0,0,0,0,0,0,0,25,25,12,,,,,,6,3.137,106,001,2019_Mar_14_1004,test_run,3.0.6,60.0089302897123,
8,TDF,TDF_8_nod_070319.wav,,,1,rating_d_final.csv,d,final,,,,,0,0,0,0,0,0,0,0,0,26,26,7,,,,,,6,3.118,106,001,2019_Mar_14_1004,test_run,3.0.6,60.0089302897123,
24,TTF,TTF_24_smit_070319.wav,,,1,rating_d_final.csv,d,final,,,,,0,0,0,0,0,0,0,0,0,27,27,23,,,,,,1,1.02,106,001,2019_Mar_14_1004,test_run,3.0.6,60.0089302897123,
32,TTF,TTF_32_hoart_070319.wav,,,1,rating_d_final.csv,d,final,,,,,0,0,0,0,0,0,0,0,0,28,28,31,,,,,,1,1.888,106,001,2019_Mar_14_1004,test_run,3.0.6,60.0089302897123,
17,TTF,TTF_17_sket_070319.wav,,,1,rating_d_final.csv,d,final,,,,,0,0,0,0,0,0,0,0,0,29,29,16,,,,,,1,1.104,106,001,2019_Mar_14_1004,test_run,3.0.6,60.0089302897123,
22,TTF,TTF_22_het_070319.wav,,,1,rating_d_final.csv,d,final,,,,,0,0,0,0,0,0,0,0,0,30,30,21,,,,,,1,1.02,106,001,2019_Mar_14_1004,test_run,3.0.6,60.0089302897123,
9,TDF,TDF_9_bod_070319.wav,,,1,rating_d_final.csv,d,final,,,,,0,0,0,0,0,0,0,0,0,31,31,8,,,,,,3,3.553,106,001,2019_Mar_14_1004,test_run,3.0.6,60.0089302897123,
8,TTF,TTF_8_noet_070319.wav,,,1,rating_t_final.csv,t,final,,,,,0,0,0,0,0,1,1,1,0,0,0,7,,,,,,7,4.988,106,001,2019_Mar_14_1004,test_run,3.0.6,60.0089302897123,
5,TTF,TTF_5_voat_070319.wav,,,1,rating_t_final.csv,t,final,,,,,0,0,0,0,0,1,1,1,0,1,1,4,,,,,,7,7.02,106,001,2019_Mar_14_1004,test_run,3.0.6,60.0089302897123,
29,TDF,TDF_29_baadd_070319.wav,,,1,rating_t_final.csv,t,final,,,,,0,0,0,0,0,1,1,1,0,2,2,28,,,,,,4,5.171,106,001,2019_Mar_14_1004,test_run,3.0.6,60.0089302897123,
10,TTF,TTF_10_broet_070319.wav,,,1,rating_t_final.csv,t,final,,,,,0,0,0,0,0,1,1,1,0,3,3,9,,,,,,7,2.087,106,001,2019_Mar_14_1004,test_run,3.0.6,60.0089302897123,
13,TTF,TTF_13_gjut_070319.wav,,,1,rating_t_final.csv,t,final,,,,,0,0,0,0,0,1,1,1,0,4,4,12,,,,,,7,1.82,106,001,2019_Mar_14_1004,test_run,3.0.6,60.0089302897123,
19,TDF,TDF_19_sjod_070319.wav,,,1,rating_t_final.csv,t,final,,,,,0,0,0,0,0,1,1,1,0,5,5,18,,,,,,5,3.02,106,001,2019_Mar_14_1004,test_run,3.0.6,60.0089302897123,
27,TDF,TDF_27_sand_070319.wav,,,1,rating_t_final.csv,t,final,,,,,0,0,0,0,0,1,1,1,0,6,6,26,,,,,,2,6.537,106,001,2019_Mar_14_1004,test_run,3.0.6,60.0089302897123,
3,TTF,TTF_3_raat_070319.wav,,,1,rating_t_final.csv,t,final,,,,,0,0,0,0,0,1,1,1,0,7,7,2,,,,,,7,1.354,106,001,2019_Mar_14_1004,test_run,3.0.6,60.0089302897123,
7,TTF,TTF_7_vit_070319.wav,,,1,rating_t_final.csv,t,final,,,,,0,0,0,0,0,1,1,1,0,8,8,6,,,,,,7,0.921,106,001,2019_Mar_14_1004,test_run,3.0.6,60.0089302897123,
30,TDF,TDF_30_sladd_070319.wav,,,1,rating_t_final.csv,t,final,,,,,0,0,0,0,0,1,1,1,0,9,9,29,,,,,,1,4.57,106,001,2019_Mar_14_1004,test_run,3.0.6,60.0089302897123,
31,TDF,TDF_31_brodd_070319.wav,,,1,rating_t_final.csv,t,final,,,,,0,0,0,0,0,1,1,1,0,10,10,30,,,,,,5,6.687,106,001,2019_Mar_14_1004,test_run,3.0.6,60.0089302897123,
18,TDF,TDF_18_sjud_070319.wav,,,1,rating_t_final.csv,t,final,,,,,0,0,0,0,0,1,1,1,0,11,11,17,,,,,,2,3.07,106,001,2019_Mar_14_1004,test_run,3.0.6,60.0089302897123,
16,TTF,TTF_16_font_070319.wav,,,1,rating_t_final.csv,t,final,,,,,0,0,0,0,0,1,1,1,0,12,12,15,,,,,,7,1.571,106,001,2019_Mar_14_1004,test_run,3.0.6,60.0089302897123,
6,TTF,TTF_6_voart_070319.wav,,,1,rating_t_final.csv,t,final,,,,,0,0,0,0,0,1,1,1,0,13,13,5,,,,,,6,2.687,106,001,2019_Mar_14_1004,test_run,3.0.6,60.0089302897123,
26,TDF,TDF_26_rymd_070319.wav,,,1,rating_t_final.csv,t,final,,,,,0,0,0,0,0,1,1,1,0,14,14,25,,,,,,1,3.686,106,001,2019_Mar_14_1004,test_run,3.0.6,60.0089302897123,
15,TTF,TTF_15_not_070319.wav,,,1,rating_t_final.csv,t,final,,,,,0,0,0,0,0,1,1,1,0,15,15,14,,,,,,7,2.204,106,001,2019_Mar_14_1004,test_run,3.0.6,60.0089302897123,
9,TTF,TTF_9_bot_070319.wav,,,1,rating_t_final.csv,t,final,,,,,0,0,0,0,0,1,1,1,0,16,16,8,,,,,,7,5.021,106,001,2019_Mar_14_1004,test_run,3.0.6,60.0089302897123,
28,TDF,TDF_28_brand_070319.wav,,,1,rating_t_final.csv,t,final,,,,,0,0,0,0,0,1,1,1,0,17,17,27,,,,,,1,1.437,106,001,2019_Mar_14_1004,test_run,3.0.6,60.0089302897123,
4,TTF,TTF_4_roet_070319.wav,,,1,rating_t_final.csv,t,final,,,,,0,0,0,0,0,1,1,1,0,18,18,3,,,,,,7,2.52,106,001,2019_Mar_14_1004,test_run,3.0.6,60.0089302897123,
1,TTF,TTF_1_rit_070319.wav,,,1,rating_t_final.csv,t,final,,,,,0,0,0,0,0,1,1,1,0,19,19,0,,,,,,7,0.987,106,001,2019_Mar_14_1004,test_run,3.0.6,60.0089302897123,
32,TDF,TDF_32_hoard_070319.wav,,,1,rating_t_final.csv,t,final,,,,,0,0,0,0,0,1,1,1,0,20,20,31,,,,,,3,6.371,106,001,2019_Mar_14_1004,test_run,3.0.6,60.0089302897123,
23,TDF,TDF_23_hud_070319.wav,,,1,rating_t_final.csv,t,final,,,,,0,0,0,0,0,1,1,1,0,21,21,22,,,,,,1,1.254,106,001,2019_Mar_14_1004,test_run,3.0.6,60.0089302897123,
20,TDF,TDF_20_god_070319.wav,,,1,rating_t_final.csv,t,final,,,,,0,0,0,0,0,1,1,1,0,22,22,19,,,,,,2,2.071,106,001,2019_Mar_14_1004,test_run,3.0.6,60.0089302897123,
14,TTF,TTF_14_mot_070319.wav,,,1,rating_t_final.csv,t,final,,,,,0,0,0,0,0,1,1,1,0,23,23,13,,,,,,7,10.103,106,001,2019_Mar_14_1004,test_run,3.0.6,60.0089302897123,
17,TDF,TDF_17_sked_070319.wav,,,1,rating_t_final.csv,t,final,,,,,0,0,0,0,0,1,1,1,0,24,24,16,,,,,,2,6.37,106,001,2019_Mar_14_1004,test_run,3.0.6,60.0089302897123,
21,TDF,TDF_21_ljod _070319.wav,,,1,rating_t_final.csv,t,final,,,,,0,0,0,0,0,1,1,1,0,25,25,20,,,,,,6,2.671,106,001,2019_Mar_14_1004,test_run,3.0.6,60.0089302897123,
22,TDF,TDF_22_hed_070319.wav,,,1,rating_t_final.csv,t,final,,,,,0,0,0,0,0,1,1,1,0,26,26,21,,,,,,1,2.604,106,001,2019_Mar_14_1004,test_run,3.0.6,60.0089302897123,
11,TTF,TTF_11_svit_070319.wav,,,1,rating_t_final.csv,t,final,,,,,0,0,0,0,0,1,1,1,0,27,27,10,,,,,,7,6.537,106,001,2019_Mar_14_1004,test_run,3.0.6,60.0089302897123,
24,TDF,TDF_24_smid_070319.wav,,,1,rating_t_final.csv,t,final,,,,,0,0,0,0,0,1,1,1,0,28,28,23,,,,,,2,3.254,106,001,2019_Mar_14_1004,test_run,3.0.6,60.0089302897123,
12,TTF,TTF_12_smet_070319.wav,,,1,rating_t_final.csv,t,final,,,,,0,0,0,0,0,1,1,1,0,29,29,11,,,,,,7,2.221,106,001,2019_Mar_14_1004,test_run,3.0.6,60.0089302897123,
25,TDF,TDF_25_synd_070319.wav,,,1,rating_t_final.csv,t,final,,,,,0,0,0,0,0,1,1,1,0,30,30,24,,,,,,2,2.921,106,001,2019_Mar_14_1004,test_run,3.0.6,60.0089302897123,
2,TTF,TTF_2_vet_070319.wav,,,1,rating_t_final.csv,t,final,,,,,0,0,0,0,0,1,1,1,0,31,31,1,,,,,,7,2.319,106,001,2019_Mar_14_1004,test_run,3.0.6,60.0089302897123,
19,TTI,TTI_19_tun_150219.wav,,,2,rating_d_initial.csv,d,initial,,,,,0,1,1,1,0,0,0,0,0,0,0,18,,,,,,5,36.987,106,001,2019_Mar_14_1004,test_run,3.0.6,60.0089302897123,
27,TTI,TTI_27_toem_150219.wav,,,2,rating_d_initial.csv,d,initial,,,,,0,1,1,1,0,0,0,0,0,1,1,26,,,,,,1,4.054,106,001,2019_Mar_14_1004,test_run,3.0.6,60.0089302897123,
7,TDI,TDI_7_den_150219.wav,,,2,rating_d_initial.csv,d,initial,,,,,0,1,1,1,0,0,0,0,0,2,2,6,,,,,,6,5.587,106,001,2019_Mar_14_1004,test_run,3.0.6,60.0089302897123,
4,TDI,TDI_4_dam_150219.wav,,,2,rating_d_initial.csv,d,initial,,,,,0,1,1,1,0,0,0,0,0,3,3,3,,,,,,7,2.087,106,001,2019_Mar_14_1004,test_run,3.0.6,60.0089302897123,
9,TDI,TDI_9_dill_150219.wav,,,2,rating_d_initial.csv,d,initial,,,,,0,1,1,1,0,0,0,0,0,4,4,8,,,,,,7,0.871,106,001,2019_Mar_14_1004,test_run,3.0.6,60.0089302897123,
13,TDI,TDI_13_dog_150219.wav,,,2,rating_d_initial.csv,d,initial,,,,,0,1,1,1,0,0,0,0,0,5,5,12,,,,,,7,1.038,106,001,2019_Mar_14_1004,test_run,3.0.6,60.0089302897123,
18,TTI,TTI_18_tum_150219.wav,,,2,rating_d_initial.csv,d,initial,,,,,0,1,1,1,0,0,0,0,0,6,6,17,,,,,,1,2.637,106,001,2019_Mar_14_1004,test_run,3.0.6,60.0089302897123,
2,TDI,TDI_2_dagg_150219.wav,,,2,rating_d_initial.csv,d,initial,,,,,0,1,1,1,0,0,0,0,0,7,7,1,,,,,,7,4.037,106,001,2019_Mar_14_1004,test_run,3.0.6,60.0089302897123,
1,TDI,TDI_1_dag_150219.wav,,,2,rating_d_initial.csv,d,initial,,,,,0,1,1,1,0,0,0,0,0,8,8,0,,,,,,7,2.538,106,001,2019_Mar_14_1004,test_run,3.0.6,60.0089302897123,
8,TDI,TDI_8_dia_150219.wav,,,2,rating_d_initial.csv,d,initial,,,,,0,1,1,1,0,0,0,0,0,9,9,7,,,,,,7,1.021,106,001,2019_Mar_14_1004,test_run,3.0.6,60.0089302897123,
21,TTI,TTI_21_tugg_150219.wav,,,2,rating_d_initial.csv,d,initial,,,,,0,1,1,1,0,0,0,0,0,10,10,20,,,,,,1,0.971,106,001,2019_Mar_14_1004,test_run,3.0.6,60.0089302897123,
26,TTI,TTI_26_toe_150219.wav,,,2,rating_d_initial.csv,d,initial,,,,,0,1,1,1,0,0,0,0,0,11,11,25,,,,,,1,1.72,106,001,2019_Mar_14_1004,test_run,3.0.6,60.0089302897123,
20,TTI,TTI_20_tur_150219.wav,,,2,rating_d_initial.csv,d,initial,,,,,0,1,1,1,0,0,0,0,0,12,12,19,,,,,,2,3.62,106,001,2019_Mar_14_1004,test_run,3.0.6,60.0089302897123,
22,TTI,TTI_22_ty_150219.wav,,,2,rating_d_initial.csv,d,initial,,,,,0,1,1,1,0,0,0,0,0,13,13,21,,,,,,2,3.071,106,001,2019_Mar_14_1004,test_run,3.0.6,60.0089302897123,
6,TDI,TDI_6_deg_150219.wav,,,2,rating_d_initial.csv,d,initial,,,,,0,1,1,1,0,0,0,0,0,14,14,5,,,,,,7,2.238,106,001,2019_Mar_14_1004,test_run,3.0.6,60.0089302897123,
11,TDI,TDI_11_dipp_150219.wav,,,2,rating_d_initial.csv,d,initial,,,,,0,1,1,1,0,0,0,0,0,15,15,10,,,,,,7,2.321,106,001,2019_Mar_14_1004,test_run,3.0.6,60.0089302897123,
5,TDI,TDI_5_dass_150219.wav,,,2,rating_d_initial.csv,d,initial,,,,,0,1,1,1,0,0,0,0,0,16,16,4,,,,,,7,0.97,106,001,2019_Mar_14_1004,test_run,3.0.6,60.0089302897123,
14,TDI,TDI_14_dok_150219.wav,,,2,rating_d_initial.csv,d,initial,,,,,0,1,1,1,0,0,0,0,0,17,17,13,,,,,,7,5.187,106,001,2019_Mar_14_1004,test_run,3.0.6,60.0089302897123,
16,TTI,TTI_16_ton_150219.wav,,,2,rating_d_initial.csv,d,initial,,,,,0,1,1,1,0,0,0,0,0,18,18,15,,,,,,1,1.086,106,001,2019_Mar_14_1004,test_run,3.0.6,60.0089302897123,
25,TTI,TTI_25_taar_150219.wav,,,2,rating_d_initial.csv,d,initial,,,,,0,1,1,1,0,0,0,0,0,19,19,24,,,,,,3,3.887,106,001,2019_Mar_14_1004,test_run,3.0.6,60.0089302897123,
3,TDI,TDI_3_dal_150219.wav,,,2,rating_d_initial.csv,d,initial,,,,,0,1,1,1,0,0,0,0,0,20,20,2,,,,,,7,0.987,106,001,2019_Mar_14_1004,test_run,3.0.6,60.0089302897123,
17,TTI,TTI_17_topp_150219.wav,,,2,rating_d_initial.csv,d,initial,,,,,0,1,1,1,0,0,0,0,0,21,21,16,,,,,,2,2.303,106,001,2019_Mar_14_1004,test_run,3.0.6,60.0089302897123,
23,TTI,TTI_23_toa_150219.wav,,,2,rating_d_initial.csv,d,initial,,,,,0,1,1,1,0,0,0,0,0,22,22,22,,,,,,1,2.338,106,001,2019_Mar_14_1004,test_run,3.0.6,60.0089302897123,
15,TTI,TTI_15_tom_150219.wav,,,2,rating_d_initial.csv,d,initial,,,,,0,1,1,1,0,0,0,0,0,23,23,14,,,,,,1,1.121,106,001,2019_Mar_14_1004,test_run,3.0.6,60.0089302897123,
24,TTI,TTI_24_taack_150219.wav,,,2,rating_d_initial.csv,d,initial,,,,,0,1,1,1,0,0,0,0,0,24,24,23,,,,,,1,1.07,106,001,2019_Mar_14_1004,test_run,3.0.6,60.0089302897123,
10,TDI,TDI_10_ditt_150219.wav,,,2,rating_d_initial.csv,d,initial,,,,,0,1,1,1,0,0,0,0,0,25,25,9,,,,,,7,2.537,106,001,2019_Mar_14_1004,test_run,3.0.6,60.0089302897123,
12,TDI,TDI_12_doa_150219.wav,,,2,rating_d_initial.csv,d,initial,,,,,0,1,1,1,0,0,0,0,0,26,26,11,,,,,,7,3.804,106,001,2019_Mar_14_1004,test_run,3.0.6,60.0089302897123,
16,TDI,TDI_16_don_150219.wav,,,2,rating_t_initial.csv,t,initial,,,,,0,1,1,1,0,1,1,1,0,0,0,15,,,,,,1,1.738,106,001,2019_Mar_14_1004,test_run,3.0.6,60.0089302897123,
15,TDI,TDI_15_dom_150219.wav,,,2,rating_t_initial.csv,t,initial,,,,,0,1,1,1,0,1,1,1,0,1,1,14,,,,,,1,1.321,106,001,2019_Mar_14_1004,test_run,3.0.6,60.0089302897123,
20,TDI,TDI_20_dur_150219.wav,,,2,rating_t_initial.csv,t,initial,,,,,0,1,1,1,0,1,1,1,0,2,2,19,,,,,,1,1.521,106,001,2019_Mar_14_1004,test_run,3.0.6,60.0089302897123,
7,TTI,TTI_7_tenn_150219.wav,,,2,rating_t_initial.csv,t,initial,,,,,0,1,1,1,0,1,1,1,0,3,3,6,,,,,,5,1.286,106,001,2019_Mar_14_1004,test_run,3.0.6,60.0089302897123,
3,TTI,TTI_3_tal_150219.wav,,,2,rating_t_initial.csv,t,initial,,,,,0,1,1,1,0,1,1,1,0,4,4,2,,,,,,5,2.337,106,001,2019_Mar_14_1004,test_run,3.0.6,60.0089302897123,
9,TTI,TTI_9_till_150219.wav,,,2,rating_t_initial.csv,t,initial,,,,,0,1,1,1,0,1,1,1,0,5,5,8,,,,,,3,0.953,106,001,2019_Mar_14_1004,test_run,3.0.6,60.0089302897123,
27,TDI,TDI_27_doem_edit_150219.wav,,,2,rating_t_initial.csv,t,initial,,,,,0,1,1,1,0,1,1,1,0,6,6,26,,,,,,6,1.904,106,001,2019_Mar_14_1004,test_run,3.0.6,60.0089302897123,
8,TTI,TTI_8_tia_150219.wav,,,2,rating_t_initial.csv,t,initial,,,,,0,1,1,1,0,1,1,1,0,7,7,7,,,,,,1,1.037,106,001,2019_Mar_14_1004,test_run,3.0.6,60.0089302897123,
22,TDI,TDI_22_dy_150219.wav,,,2,rating_t_initial.csv,t,initial,,,,,0,1,1,1,0,1,1,1,0,8,8,21,,,,,,5,12.687,106,001,2019_Mar_14_1004,test_run,3.0.6,60.0089302897123,
12,TTI,TTI_12_toa_150219.wav,,,2,rating_t_initial.csv,t,initial,,,,,0,1,1,1,0,1,1,1,0,9,9,11,,,,,,6,2.254,106,001,2019_Mar_14_1004,test_run,3.0.6,60.0089302897123,
6,TTI,TTI_6_teg_150219.wav,,,2,rating_t_initial.csv,t,initial,,,,,0,1,1,1,0,1,1,1,0,10,10,5,,,,,,6,2.521,106,001,2019_Mar_14_1004,test_run,3.0.6,60.0089302897123,
13,TTI,TTI_13_tog_150219.wav,,,2,rating_t_initial.csv,t,initial,,,,,0,1,1,1,0,1,1,1,0,11,11,12,,,,,,6,1.754,106,001,2019_Mar_14_1004,test_run,3.0.6,60.0089302897123,
4,TTI,TTI_4_tam_150219.wav,,,2,rating_t_initial.csv,t,initial,,,,,0,1,1,1,0,1,1,1,0,12,12,3,,,,,,5,5.57,106,001,2019_Mar_14_1004,test_run,3.0.6,60.0089302897123,
18,TDI,TDI_18_dum_150219.wav,,,2,rating_t_initial.csv,t,initial,,,,,0,1,1,1,0,1,1,1,0,13,13,17,,,,,,2,4.287,106,001,2019_Mar_14_1004,test_run,3.0.6,60.0089302897123,
24,TDI,TDI_24_daack_150219.wav,,,2,rating_t_initial.csv,t,initial,,,,,0,1,1,1,0,1,1,1,0,14,14,23,,,,,,1,1.104,106,001,2019_Mar_14_1004,test_run,3.0.6,60.0089302897123,
26,TDI,TDI_26_doe_150219.wav,,,2,rating_t_initial.csv,t,initial,,,,,0,1,1,1,0,1,1,1,0,15,15,25,,,,,,1,0.671,106,001,2019_Mar_14_1004,test_run,3.0.6,60.0089302897123,
10,TTI,TTI_10_titt_150219.wav,,,2,rating_t_initial.csv,t,initial,,,,,0,1,1,1,0,1,1,1,0,16,16,9,,,,,,2,2.837,106,001,2019_Mar_14_1004,test_run,3.0.6,60.0089302897123,
14,TTI,TTI_14_tok_150219.wav,,,2,rating_t_initial.csv,t,initial,,,,,0,1,1,1,0,1,1,1,0,17,17,13,,,,,,7,1.336,106,001,2019_Mar_14_1004,test_run,3.0.6,60.0089302897123,
5,TTI,TTI_5_tass_150219.wav,,,2,rating_t_initial.csv,t,initial,,,,,0,1,1,1,0,1,1,1,0,18,18,4,,,,,,5,2.421,106,001,2019_Mar_14_1004,test_run,3.0.6,60.0089302897123,
11,TTI,TTI_11_tipp_150219.wav,,,2,rating_t_initial.csv,t,initial,,,,,0,1,1,1,0,1,1,1,0,19,19,10,,,,,,6,2.338,106,001,2019_Mar_14_1004,test_run,3.0.6,60.0089302897123,
25,TDI,TDI_25_daar_150219.wav,,,2,rating_t_initial.csv,t,initial,,,,,0,1,1,1,0,1,1,1,0,20,20,24,,,,,,1,1.221,106,001,2019_Mar_14_1004,test_run,3.0.6,60.0089302897123,
17,TDI,TDI_17_dopp_150219.wav,,,2,rating_t_initial.csv,t,initial,,,,,0,1,1,1,0,1,1,1,0,21,21,16,,,,,,1,1.004,106,001,2019_Mar_14_1004,test_run,3.0.6,60.0089302897123,
23,TDI,TDI_23_doa_150219.wav,,,2,rating_t_initial.csv,t,initial,,,,,0,1,1,1,0,1,1,1,0,22,22,22,,,,,,1,1.087,106,001,2019_Mar_14_1004,test_run,3.0.6,60.0089302897123,
21,TDI,TDI_21_dugg_150219.wav,,,2,rating_t_initial.csv,t,initial,,,,,0,1,1,1,0,1,1,1,0,23,23,20,,,,,,1,1.537,106,001,2019_Mar_14_1004,test_run,3.0.6,60.0089302897123,
19,TDI,TDI_19_dun_150219.wav,,,2,rating_t_initial.csv,t,initial,,,,,0,1,1,1,0,1,1,1,0,24,24,18,,,,,,1,1.004,106,001,2019_Mar_14_1004,test_run,3.0.6,60.0089302897123,
2,TTI,TTI_2_tagg_150219.wav,,,2,rating_t_initial.csv,t,initial,,,,,0,1,1,1,0,1,1,1,0,25,25,1,,,,,,4,2.004,106,001,2019_Mar_14_1004,test_run,3.0.6,60.0089302897123,
1,TTI,TTI_1_tag_150219.wav,,,2,rating_t_initial.csv,t,initial,,,,,0,1,1,1,0,1,1,1,0,26,26,0,,,,,,5,2.17,106,001,2019_Mar_14_1004,test_run,3.0.6,60.0089302897123,
