item,item_cond,sound,corr_ans,group,block_id,listname,rating_for,position,trials.thisRepN,trials.thisTrialN,trials.thisN,trials.thisIndex,run_block_type.thisRepN,run_block_type.thisTrialN,run_block_type.thisN,run_block_type.thisIndex,routine.thisRepN,routine.thisTrialN,routine.thisN,routine.thisIndex,rating_trials.thisRepN,rating_trials.thisTrialN,rating_trials.thisN,rating_trials.thisIndex,key_resp_1.keys,key_resp_1.rt,key_resp_2.keys,key_resp_2.corr,key_resp_2.rt,rating_1.response,rating_1.rt,participant,session,date,expName,psychopyVersion,frameRate,
,,,,,,,,,,,,,,,,,,,,,,,,,j,20.436564671006636,,,,,,107,001,2019_Mar_14_1316,test_run,3.0.6,60.01386956412509,
79,EFW,EFW_49_vaasen_070319.wav,j,t,,,,,0,0,0,78,,,,,,,,,,,,,,,j,1,0.10298158599471208,,,107,001,2019_Mar_14_1316,test_run,3.0.6,60.01386956412509,
173,ENW,ENW_83_fyrskovar_150219.wav,n,t,,,,,0,1,1,172,,,,,,,,,,,,,,,n,1,0.18572910800139653,,,107,001,2019_Mar_14_1316,test_run,3.0.6,60.01386956412509,
82,EFW,EFW_52_framhoalla_070319.wav,j,t,,,,,0,2,2,81,,,,,,,,,,,,,,,j,1,2.2031350449979072,,,107,001,2019_Mar_14_1316,test_run,3.0.6,60.01386956412509,
3,ETW,ETW_3_choklad_070319.wav,j,t,,,,,0,3,3,2,,,,,,,,,,,,,,,j,1,0.98565808100102,,,107,001,2019_Mar_14_1316,test_run,3.0.6,60.01386956412509,
24,ETW,ETW_24_oeverfloed_070319.wav,j,t,,,,,0,4,4,23,,,,,,,,,,,,,,,j,1,0.402872964994458,,,107,001,2019_Mar_14_1316,test_run,3.0.6,60.01386956412509,
57,EFW,EFW_27_analysera_070319.wav,j,t,,,,,0,5,5,56,,,,,,,,,,,,,,,j,1,0.00301907100219978,,,107,001,2019_Mar_14_1316,test_run,3.0.6,60.01386956412509,
46,EFW,EFW_16_lyssna_070319.wav,j,t,,,,,0,6,6,45,,,,,,,,,,,,,,,j,1,0.3030071629982558,,,107,001,2019_Mar_14_1316,test_run,3.0.6,60.01386956412509,
109,ENW,ENW_19_morloren_150219.wav,n,t,,,,,0,7,7,108,,,,,,,,,,,,,,,n,1,2.835619694000343,,,107,001,2019_Mar_14_1316,test_run,3.0.6,60.01386956412509,
103,ENW,ENW_13_forvaron_150219.wav,n,t,,,,,0,8,8,102,,,,,,,,,,,,,,,n,1,1.2525868649972836,,,107,001,2019_Mar_14_1316,test_run,3.0.6,60.01386956412509,
11,ETW,ETW_11_period_070319.wav,j,t,,,,,0,9,9,10,,,,,,,,,,,,,,,j,1,1.8838090260032914,,,107,001,2019_Mar_14_1316,test_run,3.0.6,60.01386956412509,
136,ENW,ENW_46_pommera_150219.wav,n,t,,,,,0,10,10,135,,,,,,,,,,,,,,,n,1,1.0354287959999056,,,107,001,2019_Mar_14_1316,test_run,3.0.6,60.01386956412509,
130,ENW,ENW_40_knipackar_150219.wav,n,t,,,,,0,11,11,129,,,,,,,,,,,,,,,n,1,1.8671571829981986,,,107,001,2019_Mar_14_1316,test_run,3.0.6,60.01386956412509,
31,EFW,EFW_1_allmaan_070319.wav,j,t,,,,,0,12,12,30,,,,,,,,,,,,,,,j,1,0.25303008199989563,,,107,001,2019_Mar_14_1316,test_run,3.0.6,60.01386956412509,
156,ENW,ENW_66_voarsmenar_150219.wav,n,t,,,,,0,13,13,155,,,,,,,,,,,,,,,n,1,0.6022491109979455,,,107,001,2019_Mar_14_1316,test_run,3.0.6,60.01386956412509,
33,EFW,EFW_3_familjen_070319.wav,j,t,,,,,0,14,14,32,,,,,,,,,,,,,,,j,1,0.25040244100091513,,,107,001,2019_Mar_14_1316,test_run,3.0.6,60.01386956412509,
20,ETW,ETW_20_loppmarknad_070319.wav,j,t,,,,,0,15,15,19,,,,,,,,,,,,,,,j,1,0.30259014799958095,,,107,001,2019_Mar_14_1316,test_run,3.0.6,60.01386956412509,
58,EFW,EFW_28_olja_070319.wav,j,t,,,,,0,16,16,57,,,,,,,,,,,,,,,j,1,0.2691832800046541,,,107,001,2019_Mar_14_1316,test_run,3.0.6,60.01386956412509,
117,ENW,ENW_27_lyssvinner_150219.wav,n,t,,,,,0,17,17,116,,,,,,,,,,,,,,,n,1,0.3671530299980077,,,107,001,2019_Mar_14_1316,test_run,3.0.6,60.01386956412509,
67,EFW,EFW_37_foervisso_070319.wav,j,t,,,,,0,18,18,66,,,,,,,,,,,,,,,j,1,0.25045897199743195,,,107,001,2019_Mar_14_1316,test_run,3.0.6,60.01386956412509,
16,ETW,ETW_16_episod_070319.wav,j,t,,,,,0,19,19,15,,,,,,,,,,,,,,,j,1,0.15219748100207653,,,107,001,2019_Mar_14_1316,test_run,3.0.6,60.01386956412509,
179,ENW,ENW_89_mikenspoan_150219.wav,n,t,,,,,0,20,20,178,,,,,,,,,,,,,,,n,1,0.5526908280007774,,,107,001,2019_Mar_14_1316,test_run,3.0.6,60.01386956412509,
166,ENW,ENW_76_omfläskor_150219.wav,n,t,,,,,0,21,21,165,,,,,,,,,,,,,,,n,1,0.38384278600278776,,,107,001,2019_Mar_14_1316,test_run,3.0.6,60.01386956412509,
104,ENW,ENW_14_kärmenor_150219.wav,n,t,,,,,0,22,22,103,,,,,,,,,,,,,,,n,1,0.3189621290002833,,,107,001,2019_Mar_14_1316,test_run,3.0.6,60.01386956412509,
85,EFW,EFW_55_oroar_070319.wav,j,t,,,,,0,23,23,84,,,,,,,,,,,,,,,j,1,0.30246790199453244,,,107,001,2019_Mar_14_1316,test_run,3.0.6,60.01386956412509,
120,ENW,ENW_30_sojera_150219.wav,n,t,,,,,0,24,24,119,,,,,,,,,,,,,,,n,1,0.9361359080066904,,,107,001,2019_Mar_14_1316,test_run,3.0.6,60.01386956412509,
66,EFW,EFW_36_haarifroan_070319.wav,j,t,,,,,0,25,25,65,,,,,,,,,,,,,,,j,1,0.28565777800395153,,,107,001,2019_Mar_14_1316,test_run,3.0.6,60.01386956412509,
28,ETW,ETW_28_kommunalroad_070319.wav,j,t,,,,,0,26,26,27,,,,,,,,,,,,,,,j,1,0.3853477010052302,,,107,001,2019_Mar_14_1316,test_run,3.0.6,60.01386956412509,
80,EFW,EFW_50_snaalla_070319.wav,j,t,,,,,0,27,27,79,,,,,,,,,,,,,,,j,1,0.2862192319953465,,,107,001,2019_Mar_14_1316,test_run,3.0.6,60.01386956412509,
6,ETW,ETW_6_vemod_070319.wav,j,t,,,,,0,28,28,5,,,,,,,,,,,,,,,j,1,0.30210511200129986,,,107,001,2019_Mar_14_1316,test_run,3.0.6,60.01386956412509,
159,ENW,ENW_69_mjohusa_150219.wav,n,t,,,,,0,29,29,158,,,,,,,,,,,,,,,n,1,0.2689851489994908,,,107,001,2019_Mar_14_1316,test_run,3.0.6,60.01386956412509,
134,ENW,ENW_44_inlivna_150219.wav,n,t,,,,,0,30,30,133,,,,,,,,,,,,,,,n,1,0.3361856660048943,,,107,001,2019_Mar_14_1316,test_run,3.0.6,60.01386956412509,
118,ENW,ENW_28_läkermask_150219.wav,n,t,,,,,0,31,31,117,,,,,,,,,,,,,,,n,1,5.536798352004553,,,107,001,2019_Mar_14_1316,test_run,3.0.6,60.01386956412509,
96,ENW,ENW_6_vilfroaser_150219.wav,n,t,,,,,0,32,32,95,,,,,,,,,,,,,,,n,1,0.5522481659936602,,,107,001,2019_Mar_14_1316,test_run,3.0.6,60.01386956412509,
50,EFW,EFW_20_fenomen_070319.wav,j,t,,,,,0,33,33,49,,,,,,,,,,,,,,,j,1,0.30270157100312645,,,107,001,2019_Mar_14_1316,test_run,3.0.6,60.01386956412509,
127,ENW,ENW_37_spallrivet_150219.wav,n,t,,,,,0,34,34,126,,,,,,,,,,,,,,,n,1,0.40254421799909323,,,107,001,2019_Mar_14_1316,test_run,3.0.6,60.01386956412509,
15,ETW,ETW_15_knivsudd_070319.wav,j,t,,,,,0,35,35,14,,,,,,,,,,,,,,,j,1,3.219602721001138,,,107,001,2019_Mar_14_1316,test_run,3.0.6,60.01386956412509,
153,ENW,ENW_63_femyrisk_150219.wav,n,t,,,,,0,36,36,152,,,,,,,,,,,,,,,n,1,0.3191191039950354,,,107,001,2019_Mar_14_1316,test_run,3.0.6,60.01386956412509,
62,EFW,EFW_32_fyller_070319.wav,j,t,,,,,0,37,37,61,,,,,,,,,,,,,,,n,0,0.4690056760009611,,,107,001,2019_Mar_14_1316,test_run,3.0.6,60.01386956412509,
49,EFW,EFW_19_roerelse_070319.wav,j,t,,,,,0,38,38,48,,,,,,,,,,,,,,,j,1,0.6526273480048985,,,107,001,2019_Mar_14_1316,test_run,3.0.6,60.01386956412509,
133,ENW,ENW_43_axalän_150219.wav,n,t,,,,,0,39,39,132,,,,,,,,,,,,,,,n,1,0.419755235001503,,,107,001,2019_Mar_14_1316,test_run,3.0.6,60.01386956412509,
92,ENW,ENW_2_overralka_150219.wav,n,t,,,,,0,40,40,91,,,,,,,,,,,,,,,n,1,2.036299933999544,,,107,001,2019_Mar_14_1316,test_run,3.0.6,60.01386956412509,
86,EFW,EFW_56_mormor_070319.wav,j,t,,,,,0,41,41,85,,,,,,,,,,,,,,,j,1,0.3690681849984685,,,107,001,2019_Mar_14_1316,test_run,3.0.6,60.01386956412509,
101,ENW,ENW_11_fränna_150219.wav,n,t,,,,,0,42,42,100,,,,,,,,,,,,,,,n,1,0.6859113329992397,,,107,001,2019_Mar_14_1316,test_run,3.0.6,60.01386956412509,
121,ENW,ENW_31_romation_150219.wav,n,t,,,,,0,43,43,120,,,,,,,,,,,,,,,n,1,0.1186394590040436,,,107,001,2019_Mar_14_1316,test_run,3.0.6,60.01386956412509,
71,EFW,EFW_41_infinna_070319.wav,j,t,,,,,0,44,44,70,,,,,,,,,,,,,,,j,1,0.26896342400141293,,,107,001,2019_Mar_14_1316,test_run,3.0.6,60.01386956412509,
107,ENW,ENW_17_kopynnor_150219.wav,n,t,,,,,0,45,45,106,,,,,,,,,,,,,,,n,1,0.31899442299618386,,,107,001,2019_Mar_14_1316,test_run,3.0.6,60.01386956412509,
26,ETW,ETW_26_olympiad_070319.wav,j,t,,,,,0,46,46,25,,,,,,,,,,,,,,,j,1,0.2359803910003393,,,107,001,2019_Mar_14_1316,test_run,3.0.6,60.01386956412509,
148,ENW,ENW_58_malvossa_150219.wav,n,t,,,,,0,47,47,147,,,,,,,,,,,,,,,n,1,0.33598963099939283,,,107,001,2019_Mar_14_1316,test_run,3.0.6,60.01386956412509,
135,ENW,ENW_45_fammoarens_150219.wav,n,t,,,,,0,48,48,134,,,,,,,,,,,,,,,n,1,1.86888968799758,,,107,001,2019_Mar_14_1316,test_run,3.0.6,60.01386956412509,
4,ETW,ETW_4_livraadd_070319.wav,j,t,,,,,0,49,49,3,,,,,,,,,,,,,,,j,1,0.45226727300178027,,,107,001,2019_Mar_14_1316,test_run,3.0.6,60.01386956412509,
123,ENW,ENW_33_froamation_150219.wav,n,t,,,,,0,50,50,122,,,,,,,,,,,,,,,n,1,3.1521283090041834,,,107,001,2019_Mar_14_1316,test_run,3.0.6,60.01386956412509,
110,ENW,ENW_20_invonen_150219.wav,n,t,,,,,0,51,51,109,,,,,,,,,,,,,,,n,1,0.35220626299997093,,,107,001,2019_Mar_14_1316,test_run,3.0.6,60.01386956412509,
162,ENW,ENW_72_urskecken_150219.wav,n,t,,,,,0,52,52,161,,,,,,,,,,,,,,,n,1,0.30256796500179917,,,107,001,2019_Mar_14_1316,test_run,3.0.6,60.01386956412509,
152,ENW,ENW_62_ljullepilja_150219.wav,n,t,,,,,0,53,53,151,,,,,,,,,,,,,,,n,1,0.4186905280002975,,,107,001,2019_Mar_14_1316,test_run,3.0.6,60.01386956412509,
143,ENW,ENW_53_svarmvisso_150219.wav,n,t,,,,,0,54,54,142,,,,,,,,,,,,,,,n,1,0.26922051700239535,,,107,001,2019_Mar_14_1316,test_run,3.0.6,60.01386956412509,
180,ENW,ENW_90_skrivinar_150219.wav,n,t,,,,,0,55,55,179,,,,,,,,,,,,,,,n,1,0.2360780369999702,,,107,001,2019_Mar_14_1316,test_run,3.0.6,60.01386956412509,
9,ETW,ETW_9_haarmed_070319.wav,j,t,,,,,0,56,56,8,,,,,,,,,,,,,,,j,1,0.28626718500163406,,,107,001,2019_Mar_14_1316,test_run,3.0.6,60.01386956412509,
74,EFW,EFW_44_ljusa_070319.wav,j,t,,,,,0,57,57,73,,,,,,,,,,,,,,,j,1,2.6187001430007513,,,107,001,2019_Mar_14_1316,test_run,3.0.6,60.01386956412509,
75,EFW,EFW_45_innanfoer_070319.wav,j,t,,,,,0,58,58,74,,,,,,,,,,,,,,,j,1,0.26924612800212344,,,107,001,2019_Mar_14_1316,test_run,3.0.6,60.01386956412509,
53,EFW,EFW_23_aamne_070319.wav,j,t,,,,,0,59,59,52,,,,,,,,,,,,,,,j,1,0.38618293999752495,,,107,001,2019_Mar_14_1316,test_run,3.0.6,60.01386956412509,
29,ETW,ETW_29_oeverhuvud_070319.wav,j,t,,,,,0,60,60,28,,,,,,,,,,,,,,,j,1,0.3198322919997736,,,107,001,2019_Mar_14_1316,test_run,3.0.6,60.01386956412509,
69,EFW,EFW_39_foersvara_070319.wav,j,t,,,,,0,61,61,68,,,,,,,,,,,,,,,j,1,0.23559251199912978,,,107,001,2019_Mar_14_1316,test_run,3.0.6,60.01386956412509,
176,ENW,ENW_86_heloppsin_150219.wav,n,t,,,,,0,62,62,175,,,,,,,,,,,,,,,n,1,0.3856853130055242,,,107,001,2019_Mar_14_1316,test_run,3.0.6,60.01386956412509,
137,ENW,ENW_47_oafläppen_150219.wav,n,t,,,,,0,63,63,136,,,,,,,,,,,,,,,n,1,0.6025979080004618,,,107,001,2019_Mar_14_1316,test_run,3.0.6,60.01386956412509,
42,EFW,EFW_12_foeremoal_070319.wav,j,t,,,,,0,64,64,41,,,,,,,,,,,,,,,j,1,0.2856238230015151,,,107,001,2019_Mar_14_1316,test_run,3.0.6,60.01386956412509,
22,ETW,ETW_22_sinnesfrid_070319.wav,j,t,,,,,0,65,65,21,,,,,,,,,,,,,,,j,1,0.03610460099298507,,,107,001,2019_Mar_14_1316,test_run,3.0.6,60.01386956412509,
21,ETW,ETW_21_marmelad_070319.wav,j,t,,,,,0,66,66,20,,,,,,,,,,,,,,,j,1,0.08610569300071802,,,107,001,2019_Mar_14_1316,test_run,3.0.6,60.01386956412509,
43,EFW,EFW_13_elever_070319.wav,j,t,,,,,0,67,67,42,,,,,,,,,,,,,,,j,1,0.2862680590042146,,,107,001,2019_Mar_14_1316,test_run,3.0.6,60.01386956412509,
5,ETW,ETW_5_skepnad_070319.wav,j,t,,,,,0,68,68,4,,,,,,,,,,,,,,,j,1,0.7694028839978273,,,107,001,2019_Mar_14_1316,test_run,3.0.6,60.01386956412509,
32,EFW,EFW_2_snarare_070319.wav,j,t,,,,,0,69,69,31,,,,,,,,,,,,,,,j,1,0.23612467299972195,,,107,001,2019_Mar_14_1316,test_run,3.0.6,60.01386956412509,
95,ENW,ENW_5_spoamisk_150219.wav,n,t,,,,,0,70,70,94,,,,,,,,,,,,,,,n,1,0.3852859830003581,,,107,001,2019_Mar_14_1316,test_run,3.0.6,60.01386956412509,
170,ENW,ENW_80_tjarfera_150219.wav,n,t,,,,,0,71,71,169,,,,,,,,,,,,,,,n,1,0.3027616519975709,,,107,001,2019_Mar_14_1316,test_run,3.0.6,60.01386956412509,
106,ENW,ENW_16_rolinkar_150219.wav,n,t,,,,,0,72,72,105,,,,,,,,,,,,,,,n,1,0.30285309300234076,,,107,001,2019_Mar_14_1316,test_run,3.0.6,60.01386956412509,
100,ENW,ENW_10_skinnamer_150219.wav,n,t,,,,,0,73,73,99,,,,,,,,,,,,,,,n,1,0.28563639499770943,,,107,001,2019_Mar_14_1316,test_run,3.0.6,60.01386956412509,
132,ENW,ENW_42_hamsforing_150219.wav,n,t,,,,,0,74,74,131,,,,,,,,,,,,,,,n,1,0.4019229429977713,,,107,001,2019_Mar_14_1316,test_run,3.0.6,60.01386956412509,
68,EFW,EFW_38_foerefoell_070319.wav,j,t,,,,,0,75,75,67,,,,,,,,,,,,,,,j,1,0.21892443200340495,,,107,001,2019_Mar_14_1316,test_run,3.0.6,60.01386956412509,
35,EFW,EFW_5_samhaalle_070319.wav,j,t,,,,,0,76,76,34,,,,,,,,,,,,,,,j,1,0.20235425499413395,,,107,001,2019_Mar_14_1316,test_run,3.0.6,60.01386956412509,
149,ENW,ENW_59_kyrkmänning_150219.wav,n,t,,,,,0,77,77,148,,,,,,,,,,,,,,,n,1,1.1191981800002395,,,107,001,2019_Mar_14_1316,test_run,3.0.6,60.01386956412509,
98,ENW,ENW_8_haväras_150219.wav,n,t,,,,,0,78,78,97,,,,,,,,,,,,,,,n,1,1.0861948859965196,,,107,001,2019_Mar_14_1316,test_run,3.0.6,60.01386956412509,
165,ENW,ENW_75_foarskining_150219.wav,n,t,,,,,0,79,79,164,,,,,,,,,,,,,,,n,1,0.5692438699988998,,,107,001,2019_Mar_14_1316,test_run,3.0.6,60.01386956412509,
39,EFW,EFW_9_infektion_070319.wav,j,t,,,,,0,80,80,38,,,,,,,,,,,,,,,j,1,0.3364006959964172,,,107,001,2019_Mar_14_1316,test_run,3.0.6,60.01386956412509,
102,ENW,ENW_12_snälmola_150219.wav,n,t,,,,,0,81,81,101,,,,,,,,,,,,,,,n,1,0.4357337019973784,,,107,001,2019_Mar_14_1316,test_run,3.0.6,60.01386956412509,
113,ENW,ENW_23_allsänning_150219.wav,n,t,,,,,0,82,82,112,,,,,,,,,,,,,,,n,1,0.46921797899995,,,107,001,2019_Mar_14_1316,test_run,3.0.6,60.01386956412509,
112,ENW,ENW_22_fjäserna_150219.wav,n,t,,,,,0,83,83,111,,,,,,,,,,,,,,,n,1,0.836076913998113,,,107,001,2019_Mar_14_1316,test_run,3.0.6,60.01386956412509,
128,ENW,ENW_38_roakanier_150219.wav,n,t,,,,,0,84,84,127,,,,,,,,,,,,,,,n,1,0.800366228002531,,,107,001,2019_Mar_14_1316,test_run,3.0.6,60.01386956412509,
94,ENW,ENW_4_kyllfaren_150219.wav,n,t,,,,,0,85,85,93,,,,,,,,,,,,,,,n,1,0.5361236469980213,,,107,001,2019_Mar_14_1316,test_run,3.0.6,60.01386956412509,
131,ENW,ENW_41_vessmaren_150219.wav,n,t,,,,,0,86,86,130,,,,,,,,,,,,,,,n,1,0.43535460099519696,,,107,001,2019_Mar_14_1316,test_run,3.0.6,60.01386956412509,
116,ENW,ENW_26_anufera_150219.wav,n,t,,,,,0,87,87,115,,,,,,,,,,,,,,,n,1,0.26898607300245203,,,107,001,2019_Mar_14_1316,test_run,3.0.6,60.01386956412509,
30,ETW,ETW_30_oeverlevnad_070319.wav,j,t,,,,,0,88,88,29,,,,,,,,,,,,,,,j,1,2.585796286999539,,,107,001,2019_Mar_14_1316,test_run,3.0.6,60.01386956412509,
51,EFW,EFW_21_varierar_070319.wav,j,t,,,,,0,89,89,50,,,,,,,,,,,,,,,j,1,0.36878960600006394,,,107,001,2019_Mar_14_1316,test_run,3.0.6,60.01386956412509,
144,ENW,ENW_54_lomering_150219.wav,n,t,,,,,0,90,90,143,,,,,,,,,,,,,,,n,1,0.4028446719967178,,,107,001,2019_Mar_14_1316,test_run,3.0.6,60.01386956412509,
38,EFW,EFW_8_samman_070319.wav,j,t,,,,,0,91,91,37,,,,,,,,,,,,,,,j,1,0.5357122200002777,,,107,001,2019_Mar_14_1316,test_run,3.0.6,60.01386956412509,
93,ENW,ENW_3_vissorens_150219.wav,n,t,,,,,0,92,92,92,,,,,,,,,,,,,,,n,1,0.335603790001187,,,107,001,2019_Mar_14_1316,test_run,3.0.6,60.01386956412509,
56,EFW,EFW_26_armarna_070319.wav,j,t,,,,,0,93,93,55,,,,,,,,,,,,,,,j,1,0.28578652199939825,,,107,001,2019_Mar_14_1316,test_run,3.0.6,60.01386956412509,
155,ENW,ENW_65_hamfylla_150219.wav,n,t,,,,,0,94,94,154,,,,,,,,,,,,,,,n,1,0.3357306150064687,,,107,001,2019_Mar_14_1316,test_run,3.0.6,60.01386956412509,
126,ENW,ENW_36_skymlosa_150219.wav,n,t,,,,,0,95,95,125,,,,,,,,,,,,,,,n,1,0.5863372620005975,,,107,001,2019_Mar_14_1316,test_run,3.0.6,60.01386956412509,
161,ENW,ENW_71_forskäckla_150219.wav,n,t,,,,,0,96,96,160,,,,,,,,,,,,,,,n,1,2.6192797159965266,,,107,001,2019_Mar_14_1316,test_run,3.0.6,60.01386956412509,
41,EFW,EFW_11_maanniskor_070319.wav,j,t,,,,,0,97,97,40,,,,,,,,,,,,,,,j,1,0.3526698040004703,,,107,001,2019_Mar_14_1316,test_run,3.0.6,60.01386956412509,
73,EFW,EFW_43_halvoar_070319.wav,j,t,,,,,0,98,98,72,,,,,,,,,,,,,,,j,1,0.3523942609972437,,,107,001,2019_Mar_14_1316,test_run,3.0.6,60.01386956412509,
63,EFW,EFW_33_elva_070319.wav,j,t,,,,,0,99,99,62,,,,,,,,,,,,,,,j,1,0.2526540480030235,,,107,001,2019_Mar_14_1316,test_run,3.0.6,60.01386956412509,
10,ETW,ETW_10_nomad_070319.wav,j,t,,,,,0,100,100,9,,,,,,,,,,,,,,,j,1,0.10233700899698306,,,107,001,2019_Mar_14_1316,test_run,3.0.6,60.01386956412509,
81,EFW,EFW_51_seminarier_070319.wav,j,t,,,,,0,101,101,80,,,,,,,,,,,,,,,j,1,1.385630967997713,,,107,001,2019_Mar_14_1316,test_run,3.0.6,60.01386956412509,
141,ENW,ENW_51_skillare_150219.wav,n,t,,,,,0,102,102,140,,,,,,,,,,,,,,,n,1,0.8023274099978153,,,107,001,2019_Mar_14_1316,test_run,3.0.6,60.01386956412509,
84,EFW,EFW_54_romaner_070319.wav,j,t,,,,,0,103,103,83,,,,,,,,,,,,,,,j,1,0.6524093910047668,,,107,001,2019_Mar_14_1316,test_run,3.0.6,60.01386956412509,
177,ENW,ENW_87_kloavare_150219.wav,n,t,,,,,0,104,104,176,,,,,,,,,,,,,,,n,1,0.518881034993683,,,107,001,2019_Mar_14_1316,test_run,3.0.6,60.01386956412509,
122,ENW,ENW_32_fonering_150219.wav,n,t,,,,,0,105,105,121,,,,,,,,,,,,,,,n,1,0.31893814899376594,,,107,001,2019_Mar_14_1316,test_run,3.0.6,60.01386956412509,
164,ENW,ENW_74_malsera_150219.wav,n,t,,,,,0,106,106,163,,,,,,,,,,,,,,,n,1,0.48570330499933334,,,107,001,2019_Mar_14_1316,test_run,3.0.6,60.01386956412509,
163,ENW,ENW_73_vimmankalla_150219.wav,n,t,,,,,0,107,107,162,,,,,,,,,,,,,,,n,1,0.6690826449994347,,,107,001,2019_Mar_14_1316,test_run,3.0.6,60.01386956412509,
146,ENW,ENW_56_lysskarna_150219.wav,n,t,,,,,0,108,108,145,,,,,,,,,,,,,,,n,1,7.60246670700144,,,107,001,2019_Mar_14_1316,test_run,3.0.6,60.01386956412509,
17,ETW,ETW_17_hemmavid_070319.wav,j,t,,,,,0,109,109,16,,,,,,,,,,,,,,,j,1,0.2857984999936889,,,107,001,2019_Mar_14_1316,test_run,3.0.6,60.01386956412509,
174,ENW,ENW_84_hurmarna_150219.wav,n,t,,,,,0,110,110,173,,,,,,,,,,,,,,,n,1,0.25222848100384,,,107,001,2019_Mar_14_1316,test_run,3.0.6,60.01386956412509,
44,EFW,EFW_14_foersoeken_070319.wav,j,t,,,,,0,111,111,43,,,,,,,,,,,,,,,j,1,0.40273403599712765,,,107,001,2019_Mar_14_1316,test_run,3.0.6,60.01386956412509,
7,ETW,ETW_7_hemland_070319.wav,j,t,,,,,0,112,112,6,,,,,,,,,,,,,,,j,1,0.15224749600020004,,,107,001,2019_Mar_14_1316,test_run,3.0.6,60.01386956412509,
178,ENW,ENW_88_marsifen_150219.wav,n,t,,,,,0,113,113,177,,,,,,,,,,,,,,,n,1,0.2856912779971026,,,107,001,2019_Mar_14_1316,test_run,3.0.6,60.01386956412509,
78,EFW,EFW_48_varifroan_070319.wav,j,t,,,,,0,114,114,77,,,,,,,,,,,,,,,j,1,0.3687094260021695,,,107,001,2019_Mar_14_1316,test_run,3.0.6,60.01386956412509,
138,ENW,ENW_48_skyjamsen_150219.wav,n,t,,,,,0,115,115,137,,,,,,,,,,,,,,,n,1,0.4354879150050692,,,107,001,2019_Mar_14_1316,test_run,3.0.6,60.01386956412509,
14,ETW,ETW_14_myriad_070319.wav,j,t,,,,,0,116,116,13,,,,,,,,,,,,,,,j,1,0.9197540349996416,,,107,001,2019_Mar_14_1316,test_run,3.0.6,60.01386956412509,
114,ENW,ENW_24_samjoner_150219.wav,n,t,,,,,0,117,117,113,,,,,,,,,,,,,,,n,1,0.35308655699918745,,,107,001,2019_Mar_14_1316,test_run,3.0.6,60.01386956412509,
87,EFW,EFW_57_loenerna_070319.wav,j,t,,,,,0,118,118,86,,,,,,,,,,,,,,,j,1,0.21941363700170768,,,107,001,2019_Mar_14_1316,test_run,3.0.6,60.01386956412509,
158,ENW,ENW_68_presionar_150219.wav,n,t,,,,,0,119,119,157,,,,,,,,,,,,,,,n,1,3.8522126490061055,,,107,001,2019_Mar_14_1316,test_run,3.0.6,60.01386956412509,
129,ENW,ENW_39_ljusonar_150219.wav,n,t,,,,,0,120,120,128,,,,,,,,,,,,,,,n,1,0.48649751000630204,,,107,001,2019_Mar_14_1316,test_run,3.0.6,60.01386956412509,
99,ENW,ENW_9_samlemor_150219.wav,n,t,,,,,0,121,121,98,,,,,,,,,,,,,,,n,1,0.28575667300174246,,,107,001,2019_Mar_14_1316,test_run,3.0.6,60.01386956412509,
40,EFW,EFW_10_laarare_070319.wav,j,t,,,,,0,122,122,39,,,,,,,,,,,,,,,j,1,0.41903311199712334,,,107,001,2019_Mar_14_1316,test_run,3.0.6,60.01386956412509,
8,ETW,ETW_8_samfund_070319.wav,j,t,,,,,0,123,123,7,,,,,,,,,,,,,,,j,1,0.3530692589993123,,,107,001,2019_Mar_14_1316,test_run,3.0.6,60.01386956412509,
111,ENW,ENW_21_tjulning_150219.wav,n,t,,,,,0,124,124,110,,,,,,,,,,,,,,,n,1,0.6358408989981399,,,107,001,2019_Mar_14_1316,test_run,3.0.6,60.01386956412509,
119,ENW,ENW_29_uppskira_150219.wav,n,t,,,,,0,125,125,118,,,,,,,,,,,,,,,n,1,0.33549122299882583,,,107,001,2019_Mar_14_1316,test_run,3.0.6,60.01386956412509,
76,EFW,EFW_46_foerhoer_070319.wav,j,t,,,,,0,126,126,75,,,,,,,,,,,,,,,j,1,0.2689358529969468,,,107,001,2019_Mar_14_1316,test_run,3.0.6,60.01386956412509,
72,EFW,EFW_42_naavaron_070319.wav,j,t,,,,,0,127,127,71,,,,,,,,,,,,,,,j,1,0.619257236001431,,,107,001,2019_Mar_14_1316,test_run,3.0.6,60.01386956412509,
13,ETW,ETW_13_oevervoald_070319.wav,j,t,,,,,0,128,128,12,,,,,,,,,,,,,,,j,1,0.2502921699997387,,,107,001,2019_Mar_14_1316,test_run,3.0.6,60.01386956412509,
64,EFW,EFW_34_sommar_070319.wav,j,t,,,,,0,129,129,63,,,,,,,,,,,,,,,j,1,0.2861259799974505,,,107,001,2019_Mar_14_1316,test_run,3.0.6,60.01386956412509,
83,EFW,EFW_53_sovrum_070319.wav,j,t,,,,,0,130,130,82,,,,,,,,,,,,,,,j,1,0.5190620230059722,,,107,001,2019_Mar_14_1316,test_run,3.0.6,60.01386956412509,
25,ETW,ETW_25_mikrosekund_070319.wav,j,t,,,,,0,131,131,24,,,,,,,,,,,,,,,j,1,0.3854737360015861,,,107,001,2019_Mar_14_1316,test_run,3.0.6,60.01386956412509,
34,EFW,EFW_4_foerminska_070319.wav,j,t,,,,,0,132,132,33,,,,,,,,,,,,,,,j,1,0.2187479619969963,,,107,001,2019_Mar_14_1316,test_run,3.0.6,60.01386956412509,
147,ENW,ENW_57_flovanning_150219.wav,n,t,,,,,0,133,133,146,,,,,,,,,,,,,,,n,1,0.40280100599920843,,,107,001,2019_Mar_14_1316,test_run,3.0.6,60.01386956412509,
36,EFW,EFW_6_massa_070319.wav,j,t,,,,,0,134,134,35,,,,,,,,,,,,,,,j,1,1.952029500003846,,,107,001,2019_Mar_14_1316,test_run,3.0.6,60.01386956412509,
140,ENW,ENW_50_omsänare_150219.wav,n,t,,,,,0,135,135,139,,,,,,,,,,,,,,,n,1,0.4525294010018115,,,107,001,2019_Mar_14_1316,test_run,3.0.6,60.01386956412509,
90,EFW,EFW_60_insulin_070319.wav,j,t,,,,,0,136,136,89,,,,,,,,,,,,,,,j,1,0.28564980100054527,,,107,001,2019_Mar_14_1316,test_run,3.0.6,60.01386956412509,
12,ETW,ETW_12_offerlund_070319.wav,j,t,,,,,0,137,137,11,,,,,,,,,,,,,,,n,0,0.3189039029966807,,,107,001,2019_Mar_14_1316,test_run,3.0.6,60.01386956412509,
1,ETW,ETW_1_oskuld_070319.wav,j,t,,,,,0,138,138,0,,,,,,,,,,,,,,,j,1,0.8188946509981179,,,107,001,2019_Mar_14_1316,test_run,3.0.6,60.01386956412509,
89,EFW,EFW_59_filosofin_070319.wav,j,t,,,,,0,139,139,88,,,,,,,,,,,,,,,j,1,1.969084363001457,,,107,001,2019_Mar_14_1316,test_run,3.0.6,60.01386956412509,
150,ENW,ENW_60_lackpenar_150219.wav,n,t,,,,,0,140,140,149,,,,,,,,,,,,,,,n,1,1.9861390070000198,,,107,001,2019_Mar_14_1316,test_run,3.0.6,60.01386956412509,
61,EFW,EFW_31_jaamfoera_070319.wav,j,t,,,,,0,141,141,60,,,,,,,,,,,,,,,j,1,2.852254769000865,,,107,001,2019_Mar_14_1316,test_run,3.0.6,60.01386956412509,
47,EFW,EFW_17_januari_070319.wav,j,t,,,,,0,142,142,46,,,,,,,,,,,,,,,j,1,0.6358036129968241,,,107,001,2019_Mar_14_1316,test_run,3.0.6,60.01386956412509,
18,ETW,ETW_18_husfasad_070319.wav,j,t,,,,,0,143,143,17,,,,,,,,,,,,,,,j,1,4.302104475995293,,,107,001,2019_Mar_14_1316,test_run,3.0.6,60.01386956412509,
54,EFW,EFW_24_foersvinner_070319.wav,j,t,,,,,0,144,144,53,,,,,,,,,,,,,,,j,1,0.3005026490063756,,,107,001,2019_Mar_14_1316,test_run,3.0.6,60.01386956412509,
124,ENW,ENW_34_jomera_150219.wav,n,t,,,,,0,145,145,123,,,,,,,,,,,,,,,n,1,0.41941073799534934,,,107,001,2019_Mar_14_1316,test_run,3.0.6,60.01386956412509,
27,ETW,ETW_27_medellivslaangd_070319.wav,j,t,,,,,0,146,146,26,,,,,,,,,,,,,,,j,1,0.685508333001053,,,107,001,2019_Mar_14_1316,test_run,3.0.6,60.01386956412509,
65,EFW,EFW_35_affaarer_070319.wav,j,t,,,,,0,147,147,64,,,,,,,,,,,,,,,j,1,0.5028053610003553,,,107,001,2019_Mar_14_1316,test_run,3.0.6,60.01386956412509,
171,ENW,ENW_81_persifera_150219.wav,n,t,,,,,0,148,148,170,,,,,,,,,,,,,,,n,1,0.9522864429964102,,,107,001,2019_Mar_14_1316,test_run,3.0.6,60.01386956412509,
172,ENW,ENW_82_värskappa_150219.wav,n,t,,,,,0,149,149,171,,,,,,,,,,,,,,,n,1,0.11950378299661679,,,107,001,2019_Mar_14_1316,test_run,3.0.6,60.01386956412509,
154,ENW,ENW_64_havskvare_150219.wav,n,t,,,,,0,150,150,153,,,,,,,,,,,,,,,n,1,0.652197123003134,,,107,001,2019_Mar_14_1316,test_run,3.0.6,60.01386956412509,
91,ENW,ENW_1_norsimerar_150219.wav,n,t,,,,,0,151,151,90,,,,,,,,,,,,,,,n,1,0.7020382519986015,,,107,001,2019_Mar_14_1316,test_run,3.0.6,60.01386956412509,
37,EFW,EFW_7_sociala_070319.wav,j,t,,,,,0,152,152,36,,,,,,,,,,,,,,,j,1,0.35229480000270996,,,107,001,2019_Mar_14_1316,test_run,3.0.6,60.01386956412509,
108,ENW,ENW_18_moalursena_150219.wav,n,t,,,,,0,153,153,107,,,,,,,,,,,,,,,n,1,0.28569842900469666,,,107,001,2019_Mar_14_1316,test_run,3.0.6,60.01386956412509,
19,ETW,ETW_19_saallskapshund_070319.wav,j,t,,,,,0,154,154,18,,,,,,,,,,,,,,,j,1,0.35220244900119724,,,107,001,2019_Mar_14_1316,test_run,3.0.6,60.01386956412509,
77,EFW,EFW_47_invoanare_070319.wav,j,t,,,,,0,155,155,76,,,,,,,,,,,,,,,j,1,0.6026207760005491,,,107,001,2019_Mar_14_1316,test_run,3.0.6,60.01386956412509,
142,ENW,ENW_52_filofyll_150219.wav,n,t,,,,,0,156,156,141,,,,,,,,,,,,,,,n,1,0.5193893350005965,,,107,001,2019_Mar_14_1316,test_run,3.0.6,60.01386956412509,
97,ENW,ENW_7_flasera_150219.wav,n,t,,,,,0,157,157,96,,,,,,,,,,,,,,,n,1,0.4693932739974116,,,107,001,2019_Mar_14_1316,test_run,3.0.6,60.01386956412509,
167,ENW,ENW_77_somfera_150219.wav,n,t,,,,,0,158,158,166,,,,,,,,,,,,,,,n,1,0.38538257800246356,,,107,001,2019_Mar_14_1316,test_run,3.0.6,60.01386956412509,
160,ENW,ENW_70_roklarner_150219.wav,n,t,,,,,0,159,159,159,,,,,,,,,,,,,,,n,1,0.4695742670010077,,,107,001,2019_Mar_14_1316,test_run,3.0.6,60.01386956412509,
59,EFW,EFW_29_formen_070319.wav,j,t,,,,,0,160,160,58,,,,,,,,,,,,,,,j,1,0.23549392300628824,,,107,001,2019_Mar_14_1316,test_run,3.0.6,60.01386956412509,
151,ENW,ENW_61_myckskina_150219.wav,n,t,,,,,0,161,161,150,,,,,,,,,,,,,,,n,1,0.5694685920025222,,,107,001,2019_Mar_14_1316,test_run,3.0.6,60.01386956412509,
70,EFW,EFW_40_miljoner_070319.wav,j,t,,,,,0,162,162,69,,,,,,,,,,,,,,,j,1,0.302204673003871,,,107,001,2019_Mar_14_1316,test_run,3.0.6,60.01386956412509,
55,EFW,EFW_25_informera_070319.wav,j,t,,,,,0,163,163,54,,,,,,,,,,,,,,,j,1,3.936236456000188,,,107,001,2019_Mar_14_1316,test_run,3.0.6,60.01386956412509,
52,EFW,EFW_22_normala_070319.wav,j,t,,,,,0,164,164,51,,,,,,,,,,,,,,,j,1,0.40272718299820554,,,107,001,2019_Mar_14_1316,test_run,3.0.6,60.01386956412509,
45,EFW,EFW_15_oeverens_070319.wav,j,t,,,,,0,165,165,44,,,,,,,,,,,,,,,j,1,0.41965382900525583,,,107,001,2019_Mar_14_1316,test_run,3.0.6,60.01386956412509,
60,EFW,EFW_30_officiella_070319.wav,j,t,,,,,0,166,166,59,,,,,,,,,,,,,,,j,1,0.5193834949968732,,,107,001,2019_Mar_14_1316,test_run,3.0.6,60.01386956412509,
175,ENW,ENW_85_forlinna_150219.wav,n,t,,,,,0,167,167,174,,,,,,,,,,,,,,,n,1,0.5689429549966007,,,107,001,2019_Mar_14_1316,test_run,3.0.6,60.01386956412509,
48,EFW,EFW_18_nummer_070319.wav,j,t,,,,,0,168,168,47,,,,,,,,,,,,,,,j,1,0.3192745480046142,,,107,001,2019_Mar_14_1316,test_run,3.0.6,60.01386956412509,
115,ENW,ENW_25_affierar_150219.wav,n,t,,,,,0,169,169,114,,,,,,,,,,,,,,,n,1,2.652320747001795,,,107,001,2019_Mar_14_1316,test_run,3.0.6,60.01386956412509,
88,EFW,EFW_58_examen_070319.wav,j,t,,,,,0,170,170,87,,,,,,,,,,,,,,,j,1,0.9527208919971599,,,107,001,2019_Mar_14_1316,test_run,3.0.6,60.01386956412509,
125,ENW,ENW_35_nymaljen_150219.wav,n,t,,,,,0,171,171,124,,,,,,,,,,,,,,,n,1,0.2859220210011699,,,107,001,2019_Mar_14_1316,test_run,3.0.6,60.01386956412509,
145,ENW,ENW_55_invaskin_150219.wav,n,t,,,,,0,172,172,144,,,,,,,,,,,,,,,n,1,0.3189954300032696,,,107,001,2019_Mar_14_1316,test_run,3.0.6,60.01386956412509,
139,ENW,ENW_49_hälskrena_150219.wav,n,t,,,,,0,173,173,138,,,,,,,,,,,,,,,n,1,0.4194715929988888,,,107,001,2019_Mar_14_1316,test_run,3.0.6,60.01386956412509,
157,ENW,ENW_67_oafreskar_150219.wav,n,t,,,,,0,174,174,156,,,,,,,,,,,,,,,n,1,2.3364475859998493,,,107,001,2019_Mar_14_1316,test_run,3.0.6,60.01386956412509,
23,ETW,ETW_23_promenad_070319.wav,j,t,,,,,0,175,175,22,,,,,,,,,,,,,,,j,1,0.46965945699776057,,,107,001,2019_Mar_14_1316,test_run,3.0.6,60.01386956412509,
2,ETW,ETW_2_skillnad_070319.wav,j,t,,,,,0,176,176,1,,,,,,,,,,,,,,,j,1,0.7362085760032642,,,107,001,2019_Mar_14_1316,test_run,3.0.6,60.01386956412509,
168,ENW,ENW_78_morvinder_150219.wav,n,t,,,,,0,177,177,167,,,,,,,,,,,,,,,n,1,0.3525402559971553,,,107,001,2019_Mar_14_1316,test_run,3.0.6,60.01386956412509,
105,ENW,ENW_15_forfeckla_150219.wav,n,t,,,,,0,178,178,104,,,,,,,,,,,,,,,n,1,3.469246138003655,,,107,001,2019_Mar_14_1316,test_run,3.0.6,60.01386956412509,
169,ENW,ENW_79_lyxmare_150219.wav,n,t,,,,,0,179,179,168,,,,,,,,,,,,,,,n,1,0.36878835300012724,,,107,001,2019_Mar_14_1316,test_run,3.0.6,60.01386956412509,
24,TTF,TTF_24_smit_070319.wav,,,1,rating_d_final.csv,d,final,,,,,0,0,0,0,0,0,0,0,0,0,0,23,,,,,,2,20.303,107,001,2019_Mar_14_1316,test_run,3.0.6,60.01386956412509,
31,TTF,TTF_31_brott_070319.wav,,,1,rating_d_final.csv,d,final,,,,,0,0,0,0,0,0,0,0,0,1,1,30,,,,,,1,8.138,107,001,2019_Mar_14_1316,test_run,3.0.6,60.01386956412509,
17,TTF,TTF_17_sket_070319.wav,,,1,rating_d_final.csv,d,final,,,,,0,0,0,0,0,0,0,0,0,2,2,16,,,,,,3,8.104,107,001,2019_Mar_14_1316,test_run,3.0.6,60.01386956412509,
14,TDF,TDF_14_mod_070319.wav,,,1,rating_d_final.csv,d,final,,,,,0,0,0,0,0,0,0,0,0,3,3,13,,,,,,6,3.32,107,001,2019_Mar_14_1316,test_run,3.0.6,60.01386956412509,
6,TDF,TDF_6_voard_070319.wav,,,1,rating_d_final.csv,d,final,,,,,0,0,0,0,0,0,0,0,0,4,4,5,,,,,,6,4.021,107,001,2019_Mar_14_1316,test_run,3.0.6,60.01386956412509,
5,TDF,TDF_5_voad_070319.wav,,,1,rating_d_final.csv,d,final,,,,,0,0,0,0,0,0,0,0,0,5,5,4,,,,,,6,1.636,107,001,2019_Mar_14_1316,test_run,3.0.6,60.01386956412509,
25,TTF,TTF_25_synt_070319.wav,,,1,rating_d_final.csv,d,final,,,,,0,0,0,0,0,0,0,0,0,6,6,24,,,,,,3,2.053,107,001,2019_Mar_14_1316,test_run,3.0.6,60.01386956412509,
3,TDF,TDF_3_raad_070319.wav,,,1,rating_d_final.csv,d,final,,,,,0,0,0,0,0,0,0,0,0,7,7,2,,,,,,6,6.72,107,001,2019_Mar_14_1316,test_run,3.0.6,60.01386956412509,
1,TDF,TDF_1_rid_070319.wav,,,1,rating_d_final.csv,d,final,,,,,0,0,0,0,0,0,0,0,0,8,8,0,,,,,,7,9.953,107,001,2019_Mar_14_1316,test_run,3.0.6,60.01386956412509,
4,TDF,TDF_4_rod_070319.wav,,,1,rating_d_final.csv,d,final,,,,,0,0,0,0,0,0,0,0,0,9,9,3,,,,,,6,2.454,107,001,2019_Mar_14_1316,test_run,3.0.6,60.01386956412509,
30,TTF,TTF_30_slatt_070319.wav,,,1,rating_d_final.csv,d,final,,,,,0,0,0,0,0,0,0,0,0,10,10,29,,,,,,1,2.504,107,001,2019_Mar_14_1316,test_run,3.0.6,60.01386956412509,
23,TTF,TTF_23_hut_070319.wav,,,1,rating_d_final.csv,d,final,,,,,0,0,0,0,0,0,0,0,0,11,11,22,,,,,,2,4.536,107,001,2019_Mar_14_1316,test_run,3.0.6,60.01386956412509,
7,TDF,TDF_7_vid_070319.wav,,,1,rating_d_final.csv,d,final,,,,,0,0,0,0,0,0,0,0,0,12,12,6,,,,,,4,4.304,107,001,2019_Mar_14_1316,test_run,3.0.6,60.01386956412509,
12,TDF,TDF_12_smed_070319.wav,,,1,rating_d_final.csv,d,final,,,,,0,0,0,0,0,0,0,0,0,13,13,11,,,,,,6,0.754,107,001,2019_Mar_14_1316,test_run,3.0.6,60.01386956412509,
21,TTF,TTF_21_gjoet_070319.wav,,,1,rating_d_final.csv,d,final,,,,,0,0,0,0,0,0,0,0,0,14,14,20,,,,,,1,1.804,107,001,2019_Mar_14_1316,test_run,3.0.6,60.01386956412509,
28,TTF,TTF_28_brant_070319.wav,,,1,rating_d_final.csv,d,final,,,,,0,0,0,0,0,0,0,0,0,15,15,27,,,,,,1,0.854,107,001,2019_Mar_14_1316,test_run,3.0.6,60.01386956412509,
13,TDF,TDF_13_ljud_070319.wav,,,1,rating_d_final.csv,d,final,,,,,0,0,0,0,0,0,0,0,0,16,16,12,,,,,,7,1.787,107,001,2019_Mar_14_1316,test_run,3.0.6,60.01386956412509,
8,TDF,TDF_8_nod_070319.wav,,,1,rating_d_final.csv,d,final,,,,,0,0,0,0,0,0,0,0,0,17,17,7,,,,,,6,1.97,107,001,2019_Mar_14_1316,test_run,3.0.6,60.01386956412509,
19,TTF,TTF_19_skoet_070319.wav,,,1,rating_d_final.csv,d,final,,,,,0,0,0,0,0,0,0,0,0,18,18,18,,,,,,1,4.321,107,001,2019_Mar_14_1316,test_run,3.0.6,60.01386956412509,
11,TDF,TDF_11_svid_070319.wav,,,1,rating_d_final.csv,d,final,,,,,0,0,0,0,0,0,0,0,0,19,19,10,,,,,,2,1.72,107,001,2019_Mar_14_1316,test_run,3.0.6,60.01386956412509,
9,TDF,TDF_9_bod_070319.wav,,,1,rating_d_final.csv,d,final,,,,,0,0,0,0,0,0,0,0,0,20,20,8,,,,,,6,3.104,107,001,2019_Mar_14_1316,test_run,3.0.6,60.01386956412509,
27,TTF,TTF_27_sant_070319.wav,,,1,rating_d_final.csv,d,final,,,,,0,0,0,0,0,0,0,0,0,21,21,26,,,,,,2,3.721,107,001,2019_Mar_14_1316,test_run,3.0.6,60.01386956412509,
18,TTF,TTF_18_skjut_070319.wav,,,1,rating_d_final.csv,d,final,,,,,0,0,0,0,0,0,0,0,0,22,22,17,,,,,,1,0.654,107,001,2019_Mar_14_1316,test_run,3.0.6,60.01386956412509,
16,TDF,TDF_16_fond_070319.wav,,,1,rating_d_final.csv,d,final,,,,,0,0,0,0,0,0,0,0,0,23,23,15,,,,,,4,2.904,107,001,2019_Mar_14_1316,test_run,3.0.6,60.01386956412509,
15,TDF,TDF_15_nod_070319.wav,,,1,rating_d_final.csv,d,final,,,,,0,0,0,0,0,0,0,0,0,24,24,14,,,,,,6,2.387,107,001,2019_Mar_14_1316,test_run,3.0.6,60.01386956412509,
26,TTF,TTF_26_rymt_070319.wav,,,1,rating_d_final.csv,d,final,,,,,0,0,0,0,0,0,0,0,0,25,25,25,,,,,,7,0.687,107,001,2019_Mar_14_1316,test_run,3.0.6,60.01386956412509,
10,TDF,TDF_10_brod_070319.wav,,,1,rating_d_final.csv,d,final,,,,,0,0,0,0,0,0,0,0,0,26,26,9,,,,,,6,1.62,107,001,2019_Mar_14_1316,test_run,3.0.6,60.01386956412509,
20,TTF,TTF_20_got_070319.wav,,,1,rating_d_final.csv,d,final,,,,,0,0,0,0,0,0,0,0,0,27,27,19,,,,,,7,1.92,107,001,2019_Mar_14_1316,test_run,3.0.6,60.01386956412509,
32,TTF,TTF_32_hoart_070319.wav,,,1,rating_d_final.csv,d,final,,,,,0,0,0,0,0,0,0,0,0,28,28,31,,,,,,4,1.638,107,001,2019_Mar_14_1316,test_run,3.0.6,60.01386956412509,
22,TTF,TTF_22_het_070319.wav,,,1,rating_d_final.csv,d,final,,,,,0,0,0,0,0,0,0,0,0,29,29,21,,,,,,1,2.071,107,001,2019_Mar_14_1316,test_run,3.0.6,60.01386956412509,
29,TTF,TTF_29_bett_070319.wav,,,1,rating_d_final.csv,d,final,,,,,0,0,0,0,0,0,0,0,0,30,30,28,,,,,,1,2.57,107,001,2019_Mar_14_1316,test_run,3.0.6,60.01386956412509,
2,TDF,TDF_2_ved_070319.wav,,,1,rating_d_final.csv,d,final,,,,,0,0,0,0,0,0,0,0,0,31,31,1,,,,,,7,1.27,107,001,2019_Mar_14_1316,test_run,3.0.6,60.01386956412509,
17,TDF,TDF_17_sked_070319.wav,,,1,rating_t_final.csv,t,final,,,,,0,0,0,0,0,1,1,1,0,0,0,16,,,,,,1,4.42,107,001,2019_Mar_14_1316,test_run,3.0.6,60.01386956412509,
12,TTF,TTF_12_smet_070319.wav,,,1,rating_t_final.csv,t,final,,,,,0,0,0,0,0,1,1,1,0,1,1,11,,,,,,7,2.237,107,001,2019_Mar_14_1316,test_run,3.0.6,60.01386956412509,
20,TDF,TDF_20_god_070319.wav,,,1,rating_t_final.csv,t,final,,,,,0,0,0,0,0,1,1,1,0,2,2,19,,,,,,3,5.571,107,001,2019_Mar_14_1316,test_run,3.0.6,60.01386956412509,
24,TDF,TDF_24_smid_070319.wav,,,1,rating_t_final.csv,t,final,,,,,0,0,0,0,0,1,1,1,0,3,3,23,,,,,,1,3.337,107,001,2019_Mar_14_1316,test_run,3.0.6,60.01386956412509,
27,TDF,TDF_27_sand_070319.wav,,,1,rating_t_final.csv,t,final,,,,,0,0,0,0,0,1,1,1,0,4,4,26,,,,,,2,2.787,107,001,2019_Mar_14_1316,test_run,3.0.6,60.01386956412509,
7,TTF,TTF_7_vit_070319.wav,,,1,rating_t_final.csv,t,final,,,,,0,0,0,0,0,1,1,1,0,5,5,6,,,,,,7,1.437,107,001,2019_Mar_14_1316,test_run,3.0.6,60.01386956412509,
2,TTF,TTF_2_vet_070319.wav,,,1,rating_t_final.csv,t,final,,,,,0,0,0,0,0,1,1,1,0,6,6,1,,,,,,7,0.72,107,001,2019_Mar_14_1316,test_run,3.0.6,60.01386956412509,
32,TDF,TDF_32_hoard_070319.wav,,,1,rating_t_final.csv,t,final,,,,,0,0,0,0,0,1,1,1,0,7,7,31,,,,,,3,4.22,107,001,2019_Mar_14_1316,test_run,3.0.6,60.01386956412509,
14,TTF,TTF_14_mot_070319.wav,,,1,rating_t_final.csv,t,final,,,,,0,0,0,0,0,1,1,1,0,8,8,13,,,,,,6,0.586,107,001,2019_Mar_14_1316,test_run,3.0.6,60.01386956412509,
15,TTF,TTF_15_not_070319.wav,,,1,rating_t_final.csv,t,final,,,,,0,0,0,0,0,1,1,1,0,9,9,14,,,,,,7,0.587,107,001,2019_Mar_14_1316,test_run,3.0.6,60.01386956412509,
18,TDF,TDF_18_sjud_070319.wav,,,1,rating_t_final.csv,t,final,,,,,0,0,0,0,0,1,1,1,0,10,10,17,,,,,,3,1.787,107,001,2019_Mar_14_1316,test_run,3.0.6,60.01386956412509,
9,TTF,TTF_9_bot_070319.wav,,,1,rating_t_final.csv,t,final,,,,,0,0,0,0,0,1,1,1,0,11,11,8,,,,,,2,4.403,107,001,2019_Mar_14_1316,test_run,3.0.6,60.01386956412509,
8,TTF,TTF_8_noet_070319.wav,,,1,rating_t_final.csv,t,final,,,,,0,0,0,0,0,1,1,1,0,12,12,7,,,,,,6,4.32,107,001,2019_Mar_14_1316,test_run,3.0.6,60.01386956412509,
22,TDF,TDF_22_hed_070319.wav,,,1,rating_t_final.csv,t,final,,,,,0,0,0,0,0,1,1,1,0,13,13,21,,,,,,2,2.521,107,001,2019_Mar_14_1316,test_run,3.0.6,60.01386956412509,
13,TTF,TTF_13_gjut_070319.wav,,,1,rating_t_final.csv,t,final,,,,,0,0,0,0,0,1,1,1,0,14,14,12,,,,,,7,2.288,107,001,2019_Mar_14_1316,test_run,3.0.6,60.01386956412509,
1,TTF,TTF_1_rit_070319.wav,,,1,rating_t_final.csv,t,final,,,,,0,0,0,0,0,1,1,1,0,15,15,0,,,,,,6,2.738,107,001,2019_Mar_14_1316,test_run,3.0.6,60.01386956412509,
16,TTF,TTF_16_font_070319.wav,,,1,rating_t_final.csv,t,final,,,,,0,0,0,0,0,1,1,1,0,16,16,15,,,,,,7,2.154,107,001,2019_Mar_14_1316,test_run,3.0.6,60.01386956412509,
5,TTF,TTF_5_voat_070319.wav,,,1,rating_t_final.csv,t,final,,,,,0,0,0,0,0,1,1,1,0,17,17,4,,,,,,7,2.121,107,001,2019_Mar_14_1316,test_run,3.0.6,60.01386956412509,
19,TDF,TDF_19_sjod_070319.wav,,,1,rating_t_final.csv,t,final,,,,,0,0,0,0,0,1,1,1,0,18,18,18,,,,,,5,1.937,107,001,2019_Mar_14_1316,test_run,3.0.6,60.01386956412509,
6,TTF,TTF_6_voart_070319.wav,,,1,rating_t_final.csv,t,final,,,,,0,0,0,0,0,1,1,1,0,19,19,5,,,,,,6,1.254,107,001,2019_Mar_14_1316,test_run,3.0.6,60.01386956412509,
10,TTF,TTF_10_broet_070319.wav,,,1,rating_t_final.csv,t,final,,,,,0,0,0,0,0,1,1,1,0,20,20,9,,,,,,7,0.754,107,001,2019_Mar_14_1316,test_run,3.0.6,60.01386956412509,
4,TTF,TTF_4_roet_070319.wav,,,1,rating_t_final.csv,t,final,,,,,0,0,0,0,0,1,1,1,0,21,21,3,,,,,,7,1.304,107,001,2019_Mar_14_1316,test_run,3.0.6,60.01386956412509,
28,TDF,TDF_28_brand_070319.wav,,,1,rating_t_final.csv,t,final,,,,,0,0,0,0,0,1,1,1,0,22,22,27,,,,,,4,2.754,107,001,2019_Mar_14_1316,test_run,3.0.6,60.01386956412509,
3,TTF,TTF_3_raat_070319.wav,,,1,rating_t_final.csv,t,final,,,,,0,0,0,0,0,1,1,1,0,23,23,2,,,,,,7,2.971,107,001,2019_Mar_14_1316,test_run,3.0.6,60.01386956412509,
26,TDF,TDF_26_rymd_070319.wav,,,1,rating_t_final.csv,t,final,,,,,0,0,0,0,0,1,1,1,0,24,24,25,,,,,,4,3.237,107,001,2019_Mar_14_1316,test_run,3.0.6,60.01386956412509,
31,TDF,TDF_31_brodd_070319.wav,,,1,rating_t_final.csv,t,final,,,,,0,0,0,0,0,1,1,1,0,25,25,30,,,,,,7,1.604,107,001,2019_Mar_14_1316,test_run,3.0.6,60.01386956412509,
25,TDF,TDF_25_synd_070319.wav,,,1,rating_t_final.csv,t,final,,,,,0,0,0,0,0,1,1,1,0,26,26,24,,,,,,3,1.804,107,001,2019_Mar_14_1316,test_run,3.0.6,60.01386956412509,
23,TDF,TDF_23_hud_070319.wav,,,1,rating_t_final.csv,t,final,,,,,0,0,0,0,0,1,1,1,0,27,27,22,,,,,,1,1.07,107,001,2019_Mar_14_1316,test_run,3.0.6,60.01386956412509,
30,TDF,TDF_30_sladd_070319.wav,,,1,rating_t_final.csv,t,final,,,,,0,0,0,0,0,1,1,1,0,28,28,29,,,,,,1,1.937,107,001,2019_Mar_14_1316,test_run,3.0.6,60.01386956412509,
29,TDF,TDF_29_baadd_070319.wav,,,1,rating_t_final.csv,t,final,,,,,0,0,0,0,0,1,1,1,0,29,29,28,,,,,,6,2.704,107,001,2019_Mar_14_1316,test_run,3.0.6,60.01386956412509,
21,TDF,TDF_21_ljod _070319.wav,,,1,rating_t_final.csv,t,final,,,,,0,0,0,0,0,1,1,1,0,30,30,20,,,,,,2,2.353,107,001,2019_Mar_14_1316,test_run,3.0.6,60.01386956412509,
11,TTF,TTF_11_svit_070319.wav,,,1,rating_t_final.csv,t,final,,,,,0,0,0,0,0,1,1,1,0,31,31,10,,,,,,6,0.587,107,001,2019_Mar_14_1316,test_run,3.0.6,60.01386956412509,
2,TDI,TDI_2_dagg_150219.wav,,,2,rating_d_initial.csv,d,initial,,,,,0,1,1,1,0,0,0,0,0,0,0,1,,,,,,5,4.42,107,001,2019_Mar_14_1316,test_run,3.0.6,60.01386956412509,
27,TTI,TTI_27_toem_150219.wav,,,2,rating_d_initial.csv,d,initial,,,,,0,1,1,1,0,0,0,0,0,1,1,26,,,,,,1,3.287,107,001,2019_Mar_14_1316,test_run,3.0.6,60.01386956412509,
20,TTI,TTI_20_tur_150219.wav,,,2,rating_d_initial.csv,d,initial,,,,,0,1,1,1,0,0,0,0,0,2,2,19,,,,,,1,0.937,107,001,2019_Mar_14_1316,test_run,3.0.6,60.01386956412509,
24,TTI,TTI_24_taack_150219.wav,,,2,rating_d_initial.csv,d,initial,,,,,0,1,1,1,0,0,0,0,0,3,3,23,,,,,,2,2.503,107,001,2019_Mar_14_1316,test_run,3.0.6,60.01386956412509,
14,TDI,TDI_14_dok_150219.wav,,,2,rating_d_initial.csv,d,initial,,,,,0,1,1,1,0,0,0,0,0,4,4,13,,,,,,6,1.92,107,001,2019_Mar_14_1316,test_run,3.0.6,60.01386956412509,
18,TTI,TTI_18_tum_150219.wav,,,2,rating_d_initial.csv,d,initial,,,,,0,1,1,1,0,0,0,0,0,5,5,17,,,,,,1,2.32,107,001,2019_Mar_14_1316,test_run,3.0.6,60.01386956412509,
19,TTI,TTI_19_tun_150219.wav,,,2,rating_d_initial.csv,d,initial,,,,,0,1,1,1,0,0,0,0,0,6,6,18,,,,,,3,2.003,107,001,2019_Mar_14_1316,test_run,3.0.6,60.01386956412509,
17,TTI,TTI_17_topp_150219.wav,,,2,rating_d_initial.csv,d,initial,,,,,0,1,1,1,0,0,0,0,0,7,7,16,,,,,,2,2.42,107,001,2019_Mar_14_1316,test_run,3.0.6,60.01386956412509,
23,TTI,TTI_23_toa_150219.wav,,,2,rating_d_initial.csv,d,initial,,,,,0,1,1,1,0,0,0,0,0,8,8,22,,,,,,2,3.103,107,001,2019_Mar_14_1316,test_run,3.0.6,60.01386956412509,
13,TDI,TDI_13_dog_150219.wav,,,2,rating_d_initial.csv,d,initial,,,,,0,1,1,1,0,0,0,0,0,9,9,12,,,,,,6,1.854,107,001,2019_Mar_14_1316,test_run,3.0.6,60.01386956412509,
3,TDI,TDI_3_dal_150219.wav,,,2,rating_d_initial.csv,d,initial,,,,,0,1,1,1,0,0,0,0,0,10,10,2,,,,,,6,3.553,107,001,2019_Mar_14_1316,test_run,3.0.6,60.01386956412509,
5,TDI,TDI_5_dass_150219.wav,,,2,rating_d_initial.csv,d,initial,,,,,0,1,1,1,0,0,0,0,0,11,11,4,,,,,,7,1.221,107,001,2019_Mar_14_1316,test_run,3.0.6,60.01386956412509,
9,TDI,TDI_9_dill_150219.wav,,,2,rating_d_initial.csv,d,initial,,,,,0,1,1,1,0,0,0,0,0,12,12,8,,,,,,7,0.604,107,001,2019_Mar_14_1316,test_run,3.0.6,60.01386956412509,
16,TTI,TTI_16_ton_150219.wav,,,2,rating_d_initial.csv,d,initial,,,,,0,1,1,1,0,0,0,0,0,13,13,15,,,,,,2,4.154,107,001,2019_Mar_14_1316,test_run,3.0.6,60.01386956412509,
8,TDI,TDI_8_dia_150219.wav,,,2,rating_d_initial.csv,d,initial,,,,,0,1,1,1,0,0,0,0,0,14,14,7,,,,,,6,6.237,107,001,2019_Mar_14_1316,test_run,3.0.6,60.01386956412509,
6,TDI,TDI_6_deg_150219.wav,,,2,rating_d_initial.csv,d,initial,,,,,0,1,1,1,0,0,0,0,0,15,15,5,,,,,,6,2.987,107,001,2019_Mar_14_1316,test_run,3.0.6,60.01386956412509,
22,TTI,TTI_22_ty_150219.wav,,,2,rating_d_initial.csv,d,initial,,,,,0,1,1,1,0,0,0,0,0,16,16,21,,,,,,6,1.337,107,001,2019_Mar_14_1316,test_run,3.0.6,60.01386956412509,
7,TDI,TDI_7_den_150219.wav,,,2,rating_d_initial.csv,d,initial,,,,,0,1,1,1,0,0,0,0,0,17,17,6,,,,,,7,0.705,107,001,2019_Mar_14_1316,test_run,3.0.6,60.01386956412509,
1,TDI,TDI_1_dag_150219.wav,,,2,rating_d_initial.csv,d,initial,,,,,0,1,1,1,0,0,0,0,0,18,18,0,,,,,,7,1.404,107,001,2019_Mar_14_1316,test_run,3.0.6,60.01386956412509,
11,TDI,TDI_11_dipp_150219.wav,,,2,rating_d_initial.csv,d,initial,,,,,0,1,1,1,0,0,0,0,0,19,19,10,,,,,,7,0.604,107,001,2019_Mar_14_1316,test_run,3.0.6,60.01386956412509,
21,TTI,TTI_21_tugg_150219.wav,,,2,rating_d_initial.csv,d,initial,,,,,0,1,1,1,0,0,0,0,0,20,20,20,,,,,,2,1.887,107,001,2019_Mar_14_1316,test_run,3.0.6,60.01386956412509,
12,TDI,TDI_12_doa_150219.wav,,,2,rating_d_initial.csv,d,initial,,,,,0,1,1,1,0,0,0,0,0,21,21,11,,,,,,7,1.47,107,001,2019_Mar_14_1316,test_run,3.0.6,60.01386956412509,
4,TDI,TDI_4_dam_150219.wav,,,2,rating_d_initial.csv,d,initial,,,,,0,1,1,1,0,0,0,0,0,22,22,3,,,,,,7,1.271,107,001,2019_Mar_14_1316,test_run,3.0.6,60.01386956412509,
25,TTI,TTI_25_taar_150219.wav,,,2,rating_d_initial.csv,d,initial,,,,,0,1,1,1,0,0,0,0,0,23,23,24,,,,,,6,1.92,107,001,2019_Mar_14_1316,test_run,3.0.6,60.01386956412509,
15,TTI,TTI_15_tom_150219.wav,,,2,rating_d_initial.csv,d,initial,,,,,0,1,1,1,0,0,0,0,0,24,24,14,,,,,,1,3.954,107,001,2019_Mar_14_1316,test_run,3.0.6,60.01386956412509,
26,TTI,TTI_26_toe_150219.wav,,,2,rating_d_initial.csv,d,initial,,,,,0,1,1,1,0,0,0,0,0,25,25,25,,,,,,1,2.937,107,001,2019_Mar_14_1316,test_run,3.0.6,60.01386956412509,
10,TDI,TDI_10_ditt_150219.wav,,,2,rating_d_initial.csv,d,initial,,,,,0,1,1,1,0,0,0,0,0,26,26,9,,,,,,7,8.788,107,001,2019_Mar_14_1316,test_run,3.0.6,60.01386956412509,
27,TDI,TDI_27_doem_edit_150219.wav,,,2,rating_t_initial.csv,t,initial,,,,,0,1,1,1,0,1,1,1,0,0,0,26,,,,,,1,1.787,107,001,2019_Mar_14_1316,test_run,3.0.6,60.01386956412509,
9,TTI,TTI_9_till_150219.wav,,,2,rating_t_initial.csv,t,initial,,,,,0,1,1,1,0,1,1,1,0,1,1,8,,,,,,1,3.053,107,001,2019_Mar_14_1316,test_run,3.0.6,60.01386956412509,
6,TTI,TTI_6_teg_150219.wav,,,2,rating_t_initial.csv,t,initial,,,,,0,1,1,1,0,1,1,1,0,2,2,5,,,,,,6,0.737,107,001,2019_Mar_14_1316,test_run,3.0.6,60.01386956412509,
7,TTI,TTI_7_tenn_150219.wav,,,2,rating_t_initial.csv,t,initial,,,,,0,1,1,1,0,1,1,1,0,3,3,6,,,,,,6,5.387,107,001,2019_Mar_14_1316,test_run,3.0.6,60.01386956412509,
20,TDI,TDI_20_dur_150219.wav,,,2,rating_t_initial.csv,t,initial,,,,,0,1,1,1,0,1,1,1,0,4,4,19,,,,,,1,0.887,107,001,2019_Mar_14_1316,test_run,3.0.6,60.01386956412509,
18,TDI,TDI_18_dum_150219.wav,,,2,rating_t_initial.csv,t,initial,,,,,0,1,1,1,0,1,1,1,0,5,5,17,,,,,,1,0.605,107,001,2019_Mar_14_1316,test_run,3.0.6,60.01386956412509,
12,TTI,TTI_12_toa_150219.wav,,,2,rating_t_initial.csv,t,initial,,,,,0,1,1,1,0,1,1,1,0,6,6,11,,,,,,6,0.671,107,001,2019_Mar_14_1316,test_run,3.0.6,60.01386956412509,
13,TTI,TTI_13_tog_150219.wav,,,2,rating_t_initial.csv,t,initial,,,,,0,1,1,1,0,1,1,1,0,7,7,12,,,,,,7,0.553,107,001,2019_Mar_14_1316,test_run,3.0.6,60.01386956412509,
24,TDI,TDI_24_daack_150219.wav,,,2,rating_t_initial.csv,t,initial,,,,,0,1,1,1,0,1,1,1,0,8,8,23,,,,,,2,4.955,107,001,2019_Mar_14_1316,test_run,3.0.6,60.01386956412509,
22,TDI,TDI_22_dy_150219.wav,,,2,rating_t_initial.csv,t,initial,,,,,0,1,1,1,0,1,1,1,0,9,9,21,,,,,,2,1.02,107,001,2019_Mar_14_1316,test_run,3.0.6,60.01386956412509,
5,TTI,TTI_5_tass_150219.wav,,,2,rating_t_initial.csv,t,initial,,,,,0,1,1,1,0,1,1,1,0,10,10,4,,,,,,1,0.671,107,001,2019_Mar_14_1316,test_run,3.0.6,60.01386956412509,
11,TTI,TTI_11_tipp_150219.wav,,,2,rating_t_initial.csv,t,initial,,,,,0,1,1,1,0,1,1,1,0,11,11,10,,,,,,6,2.686,107,001,2019_Mar_14_1316,test_run,3.0.6,60.01386956412509,
21,TDI,TDI_21_dugg_150219.wav,,,2,rating_t_initial.csv,t,initial,,,,,0,1,1,1,0,1,1,1,0,12,12,20,,,,,,3,2.454,107,001,2019_Mar_14_1316,test_run,3.0.6,60.01386956412509,
19,TDI,TDI_19_dun_150219.wav,,,2,rating_t_initial.csv,t,initial,,,,,0,1,1,1,0,1,1,1,0,13,13,18,,,,,,2,2.77,107,001,2019_Mar_14_1316,test_run,3.0.6,60.01386956412509,
10,TTI,TTI_10_titt_150219.wav,,,2,rating_t_initial.csv,t,initial,,,,,0,1,1,1,0,1,1,1,0,14,14,9,,,,,,7,1.037,107,001,2019_Mar_14_1316,test_run,3.0.6,60.01386956412509,
3,TTI,TTI_3_tal_150219.wav,,,2,rating_t_initial.csv,t,initial,,,,,0,1,1,1,0,1,1,1,0,15,15,2,,,,,,7,0.654,107,001,2019_Mar_14_1316,test_run,3.0.6,60.01386956412509,
23,TDI,TDI_23_doa_150219.wav,,,2,rating_t_initial.csv,t,initial,,,,,0,1,1,1,0,1,1,1,0,16,16,22,,,,,,1,1.77,107,001,2019_Mar_14_1316,test_run,3.0.6,60.01386956412509,
8,TTI,TTI_8_tia_150219.wav,,,2,rating_t_initial.csv,t,initial,,,,,0,1,1,1,0,1,1,1,0,17,17,7,,,,,,7,1.588,107,001,2019_Mar_14_1316,test_run,3.0.6,60.01386956412509,
2,TTI,TTI_2_tagg_150219.wav,,,2,rating_t_initial.csv,t,initial,,,,,0,1,1,1,0,1,1,1,0,18,18,1,,,,,,3,1.987,107,001,2019_Mar_14_1316,test_run,3.0.6,60.01386956412509,
17,TDI,TDI_17_dopp_150219.wav,,,2,rating_t_initial.csv,t,initial,,,,,0,1,1,1,0,1,1,1,0,19,19,16,,,,,,1,3.737,107,001,2019_Mar_14_1316,test_run,3.0.6,60.01386956412509,
16,TDI,TDI_16_don_150219.wav,,,2,rating_t_initial.csv,t,initial,,,,,0,1,1,1,0,1,1,1,0,20,20,15,,,,,,1,1.17,107,001,2019_Mar_14_1316,test_run,3.0.6,60.01386956412509,
26,TDI,TDI_26_doe_150219.wav,,,2,rating_t_initial.csv,t,initial,,,,,0,1,1,1,0,1,1,1,0,21,21,25,,,,,,1,0.786,107,001,2019_Mar_14_1316,test_run,3.0.6,60.01386956412509,
4,TTI,TTI_4_tam_150219.wav,,,2,rating_t_initial.csv,t,initial,,,,,0,1,1,1,0,1,1,1,0,22,22,3,,,,,,6,4.287,107,001,2019_Mar_14_1316,test_run,3.0.6,60.01386956412509,
14,TTI,TTI_14_tok_150219.wav,,,2,rating_t_initial.csv,t,initial,,,,,0,1,1,1,0,1,1,1,0,23,23,13,,,,,,6,2.97,107,001,2019_Mar_14_1316,test_run,3.0.6,60.01386956412509,
15,TDI,TDI_15_dom_150219.wav,,,2,rating_t_initial.csv,t,initial,,,,,0,1,1,1,0,1,1,1,0,24,24,14,,,,,,4,6.504,107,001,2019_Mar_14_1316,test_run,3.0.6,60.01386956412509,
25,TDI,TDI_25_daar_150219.wav,,,2,rating_t_initial.csv,t,initial,,,,,0,1,1,1,0,1,1,1,0,25,25,24,,,,,,1,2.921,107,001,2019_Mar_14_1316,test_run,3.0.6,60.01386956412509,
1,TTI,TTI_1_tag_150219.wav,,,2,rating_t_initial.csv,t,initial,,,,,0,1,1,1,0,1,1,1,0,26,26,0,,,,,,6,0.487,107,001,2019_Mar_14_1316,test_run,3.0.6,60.01386956412509,
