item,item_cond,sound,corr_ans,group,block_id,listname,rating_for,position,trials.thisRepN,trials.thisTrialN,trials.thisN,trials.thisIndex,run_block_type.thisRepN,run_block_type.thisTrialN,run_block_type.thisN,run_block_type.thisIndex,routine.thisRepN,routine.thisTrialN,routine.thisN,routine.thisIndex,rating_trials.thisRepN,rating_trials.thisTrialN,rating_trials.thisN,rating_trials.thisIndex,key_resp_1.keys,key_resp_1.rt,key_resp_2.keys,key_resp_2.corr,key_resp_2.rt,rating_1.response,rating_1.rt,participant,session,date,expName,psychopyVersion,frameRate,
,,,,,,,,,,,,,,,,,,,,,,,,,space,18.33773951799958,,,,,,108,001,2019_Mar_15_0930,test_run,3.0.6,59.996937875982304,
63,EFW,EFW_33_elva_070319.wav,j,c ,,,,,0,0,0,62,,,,,,,,,,,,,,,j,1,2.7029018069952144,,,108,001,2019_Mar_15_0930,test_run,3.0.6,59.996937875982304,
133,ENW,ENW_43_axalän_150219.wav,n,c ,,,,,0,1,1,132,,,,,,,,,,,,,,,n,1,0.9029413329990348,,,108,001,2019_Mar_15_0930,test_run,3.0.6,59.996937875982304,
65,EFW,EFW_35_affaarer_070319.wav,j,c ,,,,,0,2,2,64,,,,,,,,,,,,,,,j,1,0.486397874999966,,,108,001,2019_Mar_15_0930,test_run,3.0.6,59.996937875982304,
71,EFW,EFW_41_infinna_070319.wav,j,c ,,,,,0,3,3,70,,,,,,,,,,,,,,,j,1,0.6193577939993702,,,108,001,2019_Mar_15_0930,test_run,3.0.6,59.996937875982304,
164,ENW,ENW_74_malsera_150219.wav,n,c ,,,,,0,4,4,163,,,,,,,,,,,,,,,n,1,0.48685775000194553,,,108,001,2019_Mar_15_0930,test_run,3.0.6,59.996937875982304,
69,EFW,EFW_39_foersvara_070319.wav,j,c ,,,,,0,5,5,68,,,,,,,,,,,,,,,j,1,0.6529024060000665,,,108,001,2019_Mar_15_0930,test_run,3.0.6,59.996937875982304,
9,ECW,ECW_9_spinna_070319.wav,j,c ,,,,,0,6,6,8,,,,,,,,,,,,,,,j,1,0.33673723599349614,,,108,001,2019_Mar_15_0930,test_run,3.0.6,59.996937875982304,
28,ECW,ECW_28_maskinerna_070319.wav,j,c ,,,,,0,7,7,27,,,,,,,,,,,,,,,j,1,0.5532856589998119,,,108,001,2019_Mar_15_0930,test_run,3.0.6,59.996937875982304,
84,EFW,EFW_54_romaner_070319.wav,j,c ,,,,,0,8,8,83,,,,,,,,,,,,,,,j,1,0.11976185800449457,,,108,001,2019_Mar_15_0930,test_run,3.0.6,59.996937875982304,
102,ENW,ENW_12_snälmola_150219.wav,n,c ,,,,,0,9,9,101,,,,,,,,,,,,,,,n,1,0.667198440998618,,,108,001,2019_Mar_15_0930,test_run,3.0.6,59.996937875982304,
108,ENW,ENW_18_moalursena_150219.wav,n,c ,,,,,0,10,10,107,,,,,,,,,,,,,,,n,1,0.5198537700052839,,,108,001,2019_Mar_15_0930,test_run,3.0.6,59.996937875982304,
107,ENW,ENW_17_kopynnor_150219.wav,n,c ,,,,,0,11,11,106,,,,,,,,,,,,,,,n,1,0.8198730839940254,,,108,001,2019_Mar_15_0930,test_run,3.0.6,59.996937875982304,
31,EFW,EFW_1_allmaan_070319.wav,j,c ,,,,,0,12,12,30,,,,,,,,,,,,,,,j,1,0.4363997179971193,,,108,001,2019_Mar_15_0930,test_run,3.0.6,59.996937875982304,
173,ENW,ENW_83_fyrskovar_150219.wav,n,c ,,,,,0,13,13,172,,,,,,,,,,,,,,,n,1,0.7195961910038022,,,108,001,2019_Mar_15_0930,test_run,3.0.6,59.996937875982304,
142,ENW,ENW_52_filofyll_150219.wav,n,c ,,,,,0,14,14,141,,,,,,,,,,,,,,,j,0,2.5030853470016154,,,108,001,2019_Mar_15_0930,test_run,3.0.6,59.996937875982304,
157,ENW,ENW_67_oafreskar_150219.wav,n,c ,,,,,0,15,15,156,,,,,,,,,,,,,,,n,1,0.3862382000006619,,,108,001,2019_Mar_15_0930,test_run,3.0.6,59.996937875982304,
148,ENW,ENW_58_malvossa_150219.wav,n,c ,,,,,0,16,16,147,,,,,,,,,,,,,,,n,1,0.4029828880011337,,,108,001,2019_Mar_15_0930,test_run,3.0.6,59.996937875982304,
46,EFW,EFW_16_lyssna_070319.wav,j,c ,,,,,0,17,17,45,,,,,,,,,,,,,,,j,1,0.3196796069969423,,,108,001,2019_Mar_15_0930,test_run,3.0.6,59.996937875982304,
62,EFW,EFW_32_fyller_070319.wav,j,c ,,,,,0,18,18,61,,,,,,,,,,,,,,,j,1,1.0030856759985909,,,108,001,2019_Mar_15_0930,test_run,3.0.6,59.996937875982304,
47,EFW,EFW_17_januari_070319.wav,j,c ,,,,,0,19,19,46,,,,,,,,,,,,,,,j,1,0.33632948399463203,,,108,001,2019_Mar_15_0930,test_run,3.0.6,59.996937875982304,
177,ENW,ENW_87_kloavare_150219.wav,n,c ,,,,,0,20,20,176,,,,,,,,,,,,,,,n,1,0.5004383589985082,,,108,001,2019_Mar_15_0930,test_run,3.0.6,59.996937875982304,
39,EFW,EFW_9_infektion_070319.wav,j,c ,,,,,0,21,21,38,,,,,,,,,,,,,,,j,1,0.30286530000012135,,,108,001,2019_Mar_15_0930,test_run,3.0.6,59.996937875982304,
83,EFW,EFW_53_sovrum_070319.wav,j,c ,,,,,0,22,22,82,,,,,,,,,,,,,,,j,1,0.3533022829942638,,,108,001,2019_Mar_15_0930,test_run,3.0.6,59.996937875982304,
169,ENW,ENW_79_lyxmare_150219.wav,n,c ,,,,,0,23,23,168,,,,,,,,,,,,,,,n,1,0.7529245909972815,,,108,001,2019_Mar_15_0930,test_run,3.0.6,59.996937875982304,
18,ECW,ECW_18_morkulla_070319.wav,j,c ,,,,,0,24,24,17,,,,,,,,,,,,,,,j,1,0.28653691999352304,,,108,001,2019_Mar_15_0930,test_run,3.0.6,59.996937875982304,
100,ENW,ENW_10_skinnamer_150219.wav,n,c ,,,,,0,25,25,99,,,,,,,,,,,,,,,n,1,0.46961057799489936,,,108,001,2019_Mar_15_0930,test_run,3.0.6,59.996937875982304,
101,ENW,ENW_11_fränna_150219.wav,n,c ,,,,,0,26,26,100,,,,,,,,,,,,,,,n,1,0.4031221609984641,,,108,001,2019_Mar_15_0930,test_run,3.0.6,59.996937875982304,
126,ENW,ENW_36_skymlosa_150219.wav,n,c ,,,,,0,27,27,125,,,,,,,,,,,,,,,n,1,0.3195704410027247,,,108,001,2019_Mar_15_0930,test_run,3.0.6,59.996937875982304,
92,ENW,ENW_2_overralka_150219.wav,n,c ,,,,,0,28,28,91,,,,,,,,,,,,,,,n,1,0.33662656999513274,,,108,001,2019_Mar_15_0930,test_run,3.0.6,59.996937875982304,
156,ENW,ENW_66_voarsmenar_150219.wav,n,c ,,,,,0,29,29,155,,,,,,,,,,,,,,,n,1,0.31969240799662657,,,108,001,2019_Mar_15_0930,test_run,3.0.6,59.996937875982304,
143,ENW,ENW_53_svarmvisso_150219.wav,n,c ,,,,,0,30,30,142,,,,,,,,,,,,,,,n,1,0.33631381099985447,,,108,001,2019_Mar_15_0930,test_run,3.0.6,59.996937875982304,
88,EFW,EFW_58_examen_070319.wav,j,c ,,,,,0,31,31,87,,,,,,,,,,,,,,,j,1,0.33630583500053035,,,108,001,2019_Mar_15_0930,test_run,3.0.6,59.996937875982304,
1,ECW,ECW_1_anka_070319.wav,j,c ,,,,,0,32,32,0,,,,,,,,,,,,,,,j,1,0.3031287199992221,,,108,001,2019_Mar_15_0930,test_run,3.0.6,59.996937875982304,
33,EFW,EFW_3_familjen_070319.wav,j,c ,,,,,0,33,33,32,,,,,,,,,,,,,,,j,1,0.2862799009963055,,,108,001,2019_Mar_15_0930,test_run,3.0.6,59.996937875982304,
40,EFW,EFW_10_laarare_070319.wav,j,c ,,,,,0,34,34,39,,,,,,,,,,,,,,,j,1,0.25327642999764066,,,108,001,2019_Mar_15_0930,test_run,3.0.6,59.996937875982304,
129,ENW,ENW_39_ljusonar_150219.wav,n,c ,,,,,0,35,35,128,,,,,,,,,,,,,,,n,1,0.5363891750021139,,,108,001,2019_Mar_15_0930,test_run,3.0.6,59.996937875982304,
171,ENW,ENW_81_persifera_150219.wav,n,c ,,,,,0,36,36,170,,,,,,,,,,,,,,,n,1,0.3530144649994327,,,108,001,2019_Mar_15_0930,test_run,3.0.6,59.996937875982304,
19,ECW,ECW_19_persiska_070319.wav,j,c ,,,,,0,37,37,18,,,,,,,,,,,,,,,j,1,0.2696768379973946,,,108,001,2019_Mar_15_0930,test_run,3.0.6,59.996937875982304,
110,ENW,ENW_20_invonen_150219.wav,n,c ,,,,,0,38,38,109,,,,,,,,,,,,,,,n,1,0.33624082199821714,,,108,001,2019_Mar_15_0930,test_run,3.0.6,59.996937875982304,
162,ENW,ENW_72_urskecken_150219.wav,n,c ,,,,,0,39,39,161,,,,,,,,,,,,,,,n,1,0.3195726640042267,,,108,001,2019_Mar_15_0930,test_run,3.0.6,59.996937875982304,
140,ENW,ENW_50_omsänare_150219.wav,n,c ,,,,,0,40,40,139,,,,,,,,,,,,,,,n,1,0.5863162699970417,,,108,001,2019_Mar_15_0930,test_run,3.0.6,59.996937875982304,
48,EFW,EFW_18_nummer_070319.wav,j,c ,,,,,0,41,41,47,,,,,,,,,,,,,,,j,1,0.3195133520057425,,,108,001,2019_Mar_15_0930,test_run,3.0.6,59.996937875982304,
6,ECW,ECW_6_sila_070319.wav,j,c ,,,,,0,42,42,5,,,,,,,,,,,,,,,n,0,0.47010541199415457,,,108,001,2019_Mar_15_0930,test_run,3.0.6,59.996937875982304,
59,EFW,EFW_29_formen_070319.wav,j,c ,,,,,0,43,43,58,,,,,,,,,,,,,,,j,1,0.1529793680019793,,,108,001,2019_Mar_15_0930,test_run,3.0.6,59.996937875982304,
44,EFW,EFW_14_foersoeken_070319.wav,j,c ,,,,,0,44,44,43,,,,,,,,,,,,,,,j,1,0.4029132620053133,,,108,001,2019_Mar_15_0930,test_run,3.0.6,59.996937875982304,
20,ECW,ECW_20_sommarspel_070319.wav,j,c ,,,,,0,45,45,19,,,,,,,,,,,,,,,j,1,0.5870195329989656,,,108,001,2019_Mar_15_0930,test_run,3.0.6,59.996937875982304,
116,ENW,ENW_26_anufera_150219.wav,n,c ,,,,,0,46,46,115,,,,,,,,,,,,,,,n,1,0.369467368000187,,,108,001,2019_Mar_15_0930,test_run,3.0.6,59.996937875982304,
76,EFW,EFW_46_foerhoer_070319.wav,j,c ,,,,,0,47,47,75,,,,,,,,,,,,,,,j,1,0.30233119699551025,,,108,001,2019_Mar_15_0930,test_run,3.0.6,59.996937875982304,
70,EFW,EFW_40_miljoner_070319.wav,j,c ,,,,,0,48,48,69,,,,,,,,,,,,,,,j,1,0.48670200900232885,,,108,001,2019_Mar_15_0930,test_run,3.0.6,59.996937875982304,
34,EFW,EFW_4_foerminska_070319.wav,j,c ,,,,,0,49,49,33,,,,,,,,,,,,,,,j,1,0.3030619939963799,,,108,001,2019_Mar_15_0930,test_run,3.0.6,59.996937875982304,
80,EFW,EFW_50_snaalla_070319.wav,j,c ,,,,,0,50,50,79,,,,,,,,,,,,,,,j,1,0.41982926600030623,,,108,001,2019_Mar_15_0930,test_run,3.0.6,59.996937875982304,
165,ENW,ENW_75_foarskining_150219.wav,n,c ,,,,,0,51,51,164,,,,,,,,,,,,,,,n,1,0.386260133003816,,,108,001,2019_Mar_15_0930,test_run,3.0.6,59.996937875982304,
105,ENW,ENW_15_forfeckla_150219.wav,n,c ,,,,,0,52,52,104,,,,,,,,,,,,,,,n,1,0.6697540800014394,,,108,001,2019_Mar_15_0930,test_run,3.0.6,59.996937875982304,
5,ECW,ECW_5_kamma_070319.wav,j,c ,,,,,0,53,53,4,,,,,,,,,,,,,,,j,1,0.3029106329995557,,,108,001,2019_Mar_15_0930,test_run,3.0.6,59.996937875982304,
123,ENW,ENW_33_froamation_150219.wav,n,c ,,,,,0,54,54,122,,,,,,,,,,,,,,,n,1,0.7697801640024409,,,108,001,2019_Mar_15_0930,test_run,3.0.6,59.996937875982304,
7,ECW,ECW_7_marin_070319.wav,j,c ,,,,,0,55,55,6,,,,,,,,,,,,,,,j,1,0.5364213799985009,,,108,001,2019_Mar_15_0930,test_run,3.0.6,59.996937875982304,
86,EFW,EFW_56_mormor_070319.wav,j,c ,,,,,0,56,56,85,,,,,,,,,,,,,,,j,1,0.33649819799757097,,,108,001,2019_Mar_15_0930,test_run,3.0.6,59.996937875982304,
99,ENW,ENW_9_samlemor_150219.wav,n,c ,,,,,0,57,57,98,,,,,,,,,,,,,,,n,1,1.3695505400028196,,,108,001,2019_Mar_15_0930,test_run,3.0.6,59.996937875982304,
134,ENW,ENW_44_inlivna_150219.wav,n,c ,,,,,0,58,58,133,,,,,,,,,,,,,,,n,1,0.6697192790015833,,,108,001,2019_Mar_15_0930,test_run,3.0.6,59.996937875982304,
146,ENW,ENW_56_lysskarna_150219.wav,n,c ,,,,,0,59,59,145,,,,,,,,,,,,,,,n,1,0.5366447239939589,,,108,001,2019_Mar_15_0930,test_run,3.0.6,59.996937875982304,
64,EFW,EFW_34_sommar_070319.wav,j,c ,,,,,0,60,60,63,,,,,,,,,,,,,,,j,1,0.4365667480014963,,,108,001,2019_Mar_15_0930,test_run,3.0.6,59.996937875982304,
120,ENW,ENW_30_sojera_150219.wav,n,c ,,,,,0,61,61,119,,,,,,,,,,,,,,,j,0,1.053010349998658,,,108,001,2019_Mar_15_0930,test_run,3.0.6,59.996937875982304,
52,EFW,EFW_22_normala_070319.wav,j,c ,,,,,0,62,62,51,,,,,,,,,,,,,,,j,1,0.7196151959942654,,,108,001,2019_Mar_15_0930,test_run,3.0.6,59.996937875982304,
145,ENW,ENW_55_invaskin_150219.wav,n,c ,,,,,0,63,63,144,,,,,,,,,,,,,,,n,1,0.7196660179979517,,,108,001,2019_Mar_15_0930,test_run,3.0.6,59.996937875982304,
104,ENW,ENW_14_kärmenor_150219.wav,n,c ,,,,,0,64,64,103,,,,,,,,,,,,,,,n,1,0.7029348489959375,,,108,001,2019_Mar_15_0930,test_run,3.0.6,59.996937875982304,
32,EFW,EFW_2_snarare_070319.wav,j,c ,,,,,0,65,65,31,,,,,,,,,,,,,,,j,1,0.35322678399825236,,,108,001,2019_Mar_15_0930,test_run,3.0.6,59.996937875982304,
56,EFW,EFW_26_armarna_070319.wav,j,c ,,,,,0,66,66,55,,,,,,,,,,,,,,,n,0,0.3360990739965928,,,108,001,2019_Mar_15_0930,test_run,3.0.6,59.996937875982304,
61,EFW,EFW_31_jaamfoera_070319.wav,j,c ,,,,,0,67,67,60,,,,,,,,,,,,,,,j,1,0.9172238080063835,,,108,001,2019_Mar_15_0930,test_run,3.0.6,59.996937875982304,
23,ECW,ECW_23_maximal_070319.wav,j,c ,,,,,0,68,68,22,,,,,,,,,,,,,,,j,1,0.35311743799684336,,,108,001,2019_Mar_15_0930,test_run,3.0.6,59.996937875982304,
180,ENW,ENW_90_skrivinar_150219.wav,n,c ,,,,,0,69,69,179,,,,,,,,,,,,,,,n,1,0.336639479995938,,,108,001,2019_Mar_15_0930,test_run,3.0.6,59.996937875982304,
90,EFW,EFW_60_insulin_070319.wav,j,c ,,,,,0,70,70,89,,,,,,,,,,,,,,,j,1,0.3201704430030077,,,108,001,2019_Mar_15_0930,test_run,3.0.6,59.996937875982304,
137,ENW,ENW_47_oafläppen_150219.wav,n,c ,,,,,0,71,71,136,,,,,,,,,,,,,,,n,1,0.4005350039951736,,,108,001,2019_Mar_15_0930,test_run,3.0.6,59.996937875982304,
176,ENW,ENW_86_heloppsin_150219.wav,n,c ,,,,,0,72,72,175,,,,,,,,,,,,,,,n,1,1.1865719670022372,,,108,001,2019_Mar_15_0930,test_run,3.0.6,59.996937875982304,
21,ECW,ECW_21_husera_070319.wav,j,c ,,,,,0,73,73,20,,,,,,,,,,,,,,,j,1,0.4031300490023568,,,108,001,2019_Mar_15_0930,test_run,3.0.6,59.996937875982304,
49,EFW,EFW_19_roerelse_070319.wav,j,c ,,,,,0,74,74,48,,,,,,,,,,,,,,,j,1,0.3006478549941676,,,108,001,2019_Mar_15_0930,test_run,3.0.6,59.996937875982304,
91,ENW,ENW_1_norsimerar_150219.wav,n,c ,,,,,0,75,75,90,,,,,,,,,,,,,,,n,1,1.1195500289977645,,,108,001,2019_Mar_15_0930,test_run,3.0.6,59.996937875982304,
111,ENW,ENW_21_tjulning_150219.wav,n,c ,,,,,0,76,76,110,,,,,,,,,,,,,,,n,1,1.352969692001352,,,108,001,2019_Mar_15_0930,test_run,3.0.6,59.996937875982304,
27,ECW,ECW_27_panorama_070319.wav,j,c ,,,,,0,77,77,26,,,,,,,,,,,,,,,j,1,0.6201505790013471,,,108,001,2019_Mar_15_0930,test_run,3.0.6,59.996937875982304,
82,EFW,EFW_52_framhoalla_070319.wav,j,c ,,,,,0,78,78,81,,,,,,,,,,,,,,,j,1,0.3534827419935027,,,108,001,2019_Mar_15_0930,test_run,3.0.6,59.996937875982304,
178,ENW,ENW_88_marsifen_150219.wav,n,c ,,,,,0,79,79,177,,,,,,,,,,,,,,,n,1,0.7362673850002466,,,108,001,2019_Mar_15_0930,test_run,3.0.6,59.996937875982304,
13,ECW,ECW_13_kanonform_070319.wav,j,c ,,,,,0,80,80,12,,,,,,,,,,,,,,,j,1,0.38644549900345737,,,108,001,2019_Mar_15_0930,test_run,3.0.6,59.996937875982304,
14,ECW,ECW_14_excellens_070319.wav,j,c ,,,,,0,81,81,13,,,,,,,,,,,,,,,j,1,0.4199267739968491,,,108,001,2019_Mar_15_0930,test_run,3.0.6,59.996937875982304,
87,EFW,EFW_57_loenerna_070319.wav,j,c ,,,,,0,82,82,86,,,,,,,,,,,,,,,j,1,0.30358541700115893,,,108,001,2019_Mar_15_0930,test_run,3.0.6,59.996937875982304,
51,EFW,EFW_21_varierar_070319.wav,j,c ,,,,,0,83,83,50,,,,,,,,,,,,,,,j,1,1.0365895880022435,,,108,001,2019_Mar_15_0930,test_run,3.0.6,59.996937875982304,
106,ENW,ENW_16_rolinkar_150219.wav,n,c ,,,,,0,84,84,105,,,,,,,,,,,,,,,n,1,0.4033104450063547,,,108,001,2019_Mar_15_0930,test_run,3.0.6,59.996937875982304,
73,EFW,EFW_43_halvoar_070319.wav,j,c ,,,,,0,85,85,72,,,,,,,,,,,,,,,j,1,0.3338892079991638,,,108,001,2019_Mar_15_0930,test_run,3.0.6,59.996937875982304,
41,EFW,EFW_11_maanniskor_070319.wav,j,c ,,,,,0,86,86,40,,,,,,,,,,,,,,,j,1,0.30312079100258416,,,108,001,2019_Mar_15_0930,test_run,3.0.6,59.996937875982304,
112,ENW,ENW_22_fjäserna_150219.wav,n,c ,,,,,0,87,87,111,,,,,,,,,,,,,,,n,1,0.3505270519963233,,,108,001,2019_Mar_15_0930,test_run,3.0.6,59.996937875982304,
163,ENW,ENW_73_vimmankalla_150219.wav,n,c ,,,,,0,88,88,162,,,,,,,,,,,,,,,n,1,0.48599199800082715,,,108,001,2019_Mar_15_0930,test_run,3.0.6,59.996937875982304,
85,EFW,EFW_55_oroar_070319.wav,j,c ,,,,,0,89,89,84,,,,,,,,,,,,,,,j,1,0.2837146890014992,,,108,001,2019_Mar_15_0930,test_run,3.0.6,59.996937875982304,
11,ECW,ECW_11_foersoeka_070319.wav,j,c ,,,,,0,90,90,10,,,,,,,,,,,,,,,j,1,0.31997534100082703,,,108,001,2019_Mar_15_0930,test_run,3.0.6,59.996937875982304,
113,ENW,ENW_23_allsänning_150219.wav,n,c ,,,,,0,91,91,112,,,,,,,,,,,,,,,n,1,0.336735786004283,,,108,001,2019_Mar_15_0930,test_run,3.0.6,59.996937875982304,
159,ENW,ENW_69_mjohusa_150219.wav,n,c ,,,,,0,92,92,158,,,,,,,,,,,,,,,n,1,0.31941136100067524,,,108,001,2019_Mar_15_0930,test_run,3.0.6,59.996937875982304,
130,ENW,ENW_40_knipackar_150219.wav,n,c ,,,,,0,93,93,129,,,,,,,,,,,,,,,n,1,0.46966726000391645,,,108,001,2019_Mar_15_0930,test_run,3.0.6,59.996937875982304,
168,ENW,ENW_78_morvinder_150219.wav,n,c ,,,,,0,94,94,167,,,,,,,,,,,,,,,n,1,0.3530560660001356,,,108,001,2019_Mar_15_0930,test_run,3.0.6,59.996937875982304,
144,ENW,ENW_54_lomering_150219.wav,n,c ,,,,,0,95,95,143,,,,,,,,,,,,,,,n,1,1.1697621649946086,,,108,001,2019_Mar_15_0930,test_run,3.0.6,59.996937875982304,
94,ENW,ENW_4_kyllfaren_150219.wav,n,c ,,,,,0,96,96,93,,,,,,,,,,,,,,,n,1,0.852945874001307,,,108,001,2019_Mar_15_0930,test_run,3.0.6,59.996937875982304,
172,ENW,ENW_82_värskappa_150219.wav,n,c ,,,,,0,97,97,171,,,,,,,,,,,,,,,n,1,0.33621621200290974,,,108,001,2019_Mar_15_0930,test_run,3.0.6,59.996937875982304,
2,ECW,ECW_2_hinna_070319.wav,j,c ,,,,,0,98,98,1,,,,,,,,,,,,,,,j,1,0.3535560849995818,,,108,001,2019_Mar_15_0930,test_run,3.0.6,59.996937875982304,
45,EFW,EFW_15_oeverens_070319.wav,j,c ,,,,,0,99,99,44,,,,,,,,,,,,,,,j,1,0.40274924100231146,,,108,001,2019_Mar_15_0930,test_run,3.0.6,59.996937875982304,
16,ECW,ECW_16_skinskalle_070319.wav,j,c ,,,,,0,100,100,15,,,,,,,,,,,,,,,j,1,0.2697763699979987,,,108,001,2019_Mar_15_0930,test_run,3.0.6,59.996937875982304,
37,EFW,EFW_7_sociala_070319.wav,j,c ,,,,,0,101,101,36,,,,,,,,,,,,,,,j,1,0.3194812359943171,,,108,001,2019_Mar_15_0930,test_run,3.0.6,59.996937875982304,
26,ECW,ECW_26_kroenikoeren_070319.wav,j,c ,,,,,0,102,102,25,,,,,,,,,,,,,,,j,1,0.5199064249973162,,,108,001,2019_Mar_15_0930,test_run,3.0.6,59.996937875982304,
167,ENW,ENW_77_somfera_150219.wav,n,c ,,,,,0,103,103,166,,,,,,,,,,,,,,,n,1,0.03628067299723625,,,108,001,2019_Mar_15_0930,test_run,3.0.6,59.996937875982304,
60,EFW,EFW_30_officiella_070319.wav,j,c ,,,,,0,104,104,59,,,,,,,,,,,,,,,j,1,0.5031779779965291,,,108,001,2019_Mar_15_0930,test_run,3.0.6,59.996937875982304,
79,EFW,EFW_49_vaasen_070319.wav,j,c ,,,,,0,105,105,78,,,,,,,,,,,,,,,j,1,0.35302466500434093,,,108,001,2019_Mar_15_0930,test_run,3.0.6,59.996937875982304,
58,EFW,EFW_28_olja_070319.wav,j,c ,,,,,0,106,106,57,,,,,,,,,,,,,,,j,1,0.26968490799481515,,,108,001,2019_Mar_15_0930,test_run,3.0.6,59.996937875982304,
158,ENW,ENW_68_presionar_150219.wav,n,c ,,,,,0,107,107,157,,,,,,,,,,,,,,,n,1,0.30295870199915953,,,108,001,2019_Mar_15_0930,test_run,3.0.6,59.996937875982304,
68,EFW,EFW_38_foerefoell_070319.wav,j,c ,,,,,0,108,108,67,,,,,,,,,,,,,,,j,1,0.7034665060054976,,,108,001,2019_Mar_15_0930,test_run,3.0.6,59.996937875982304,
174,ENW,ENW_84_hurmarna_150219.wav,n,c ,,,,,0,109,109,173,,,,,,,,,,,,,,,n,1,0.35289887100225314,,,108,001,2019_Mar_15_0930,test_run,3.0.6,59.996937875982304,
119,ENW,ENW_29_uppskira_150219.wav,n,c ,,,,,0,110,110,118,,,,,,,,,,,,,,,n,1,1.3863621310010785,,,108,001,2019_Mar_15_0930,test_run,3.0.6,59.996937875982304,
98,ENW,ENW_8_haväras_150219.wav,n,c ,,,,,0,111,111,97,,,,,,,,,,,,,,,n,1,0.33607173599739326,,,108,001,2019_Mar_15_0930,test_run,3.0.6,59.996937875982304,
57,EFW,EFW_27_analysera_070319.wav,j,c ,,,,,0,112,112,56,,,,,,,,,,,,,,,j,1,0.5363383140065707,,,108,001,2019_Mar_15_0930,test_run,3.0.6,59.996937875982304,
89,EFW,EFW_59_filosofin_070319.wav,j,c ,,,,,0,113,113,88,,,,,,,,,,,,,,,j,1,0.5196703039982822,,,108,001,2019_Mar_15_0930,test_run,3.0.6,59.996937875982304,
153,ENW,ENW_63_femyrisk_150219.wav,n,c ,,,,,0,114,114,152,,,,,,,,,,,,,,,n,1,1.1198014359979425,,,108,001,2019_Mar_15_0930,test_run,3.0.6,59.996937875982304,
78,EFW,EFW_48_varifroan_070319.wav,j,c ,,,,,0,115,115,77,,,,,,,,,,,,,,,j,1,0.3697058309990098,,,108,001,2019_Mar_15_0930,test_run,3.0.6,59.996937875982304,
25,ECW,ECW_25_oeverfoeras_070319.wav,j,c ,,,,,0,116,116,24,,,,,,,,,,,,,,,j,1,0.9200118600056157,,,108,001,2019_Mar_15_0930,test_run,3.0.6,59.996937875982304,
147,ENW,ENW_57_flovanning_150219.wav,n,c ,,,,,0,117,117,146,,,,,,,,,,,,,,,n,1,0.3672553220021655,,,108,001,2019_Mar_15_0930,test_run,3.0.6,59.996937875982304,
125,ENW,ENW_35_nymaljen_150219.wav,n,c ,,,,,0,118,118,124,,,,,,,,,,,,,,,n,1,0.8696850699998322,,,108,001,2019_Mar_15_0930,test_run,3.0.6,59.996937875982304,
122,ENW,ENW_32_fonering_150219.wav,n,c ,,,,,0,119,119,121,,,,,,,,,,,,,,,n,1,0.4194517840005574,,,108,001,2019_Mar_15_0930,test_run,3.0.6,59.996937875982304,
149,ENW,ENW_59_kyrkmänning_150219.wav,n,c ,,,,,0,120,120,148,,,,,,,,,,,,,,,n,1,1.752915386998211,,,108,001,2019_Mar_15_0930,test_run,3.0.6,59.996937875982304,
12,ECW,ECW_12_moehippa_070319.wav,j,c ,,,,,0,121,121,11,,,,,,,,,,,,,,,j,1,0.5363274459959939,,,108,001,2019_Mar_15_0930,test_run,3.0.6,59.996937875982304,
97,ENW,ENW_7_flasera_150219.wav,n,c ,,,,,0,122,122,96,,,,,,,,,,,,,,,n,1,0.8696770570022636,,,108,001,2019_Mar_15_0930,test_run,3.0.6,59.996937875982304,
127,ENW,ENW_37_spallrivet_150219.wav,n,c ,,,,,0,123,123,126,,,,,,,,,,,,,,,n,1,0.5863671429979149,,,108,001,2019_Mar_15_0930,test_run,3.0.6,59.996937875982304,
75,EFW,EFW_45_innanfoer_070319.wav,j,c ,,,,,0,124,124,74,,,,,,,,,,,,,,,j,1,0.3366015499996138,,,108,001,2019_Mar_15_0930,test_run,3.0.6,59.996937875982304,
67,EFW,EFW_37_foervisso_070319.wav,j,c ,,,,,0,125,125,66,,,,,,,,,,,,,,,j,1,0.9028560499937157,,,108,001,2019_Mar_15_0930,test_run,3.0.6,59.996937875982304,
43,EFW,EFW_13_elever_070319.wav,j,c ,,,,,0,126,126,42,,,,,,,,,,,,,,,j,1,0.31971891700231936,,,108,001,2019_Mar_15_0930,test_run,3.0.6,59.996937875982304,
74,EFW,EFW_44_ljusa_070319.wav,j,c ,,,,,0,127,127,73,,,,,,,,,,,,,,,j,1,0.5364839940011734,,,108,001,2019_Mar_15_0930,test_run,3.0.6,59.996937875982304,
154,ENW,ENW_64_havskvare_150219.wav,n,c ,,,,,0,128,128,153,,,,,,,,,,,,,,,n,1,0.43636802899709437,,,108,001,2019_Mar_15_0930,test_run,3.0.6,59.996937875982304,
131,ENW,ENW_41_vessmaren_150219.wav,n,c ,,,,,0,129,129,130,,,,,,,,,,,,,,,n,1,0.3193974489986431,,,108,001,2019_Mar_15_0930,test_run,3.0.6,59.996937875982304,
139,ENW,ENW_49_hälskrena_150219.wav,n,c ,,,,,0,130,130,138,,,,,,,,,,,,,,,n,1,0.36968133799382485,,,108,001,2019_Mar_15_0930,test_run,3.0.6,59.996937875982304,
4,ECW,ECW_4_skraalla_070319.wav,j,c ,,,,,0,131,131,3,,,,,,,,,,,,,,,j,1,1.2027646569986246,,,108,001,2019_Mar_15_0930,test_run,3.0.6,59.996937875982304,
95,ENW,ENW_5_spoamisk_150219.wav,n,c ,,,,,0,132,132,94,,,,,,,,,,,,,,,n,1,0.45301024000218604,,,108,001,2019_Mar_15_0930,test_run,3.0.6,59.996937875982304,
124,ENW,ENW_34_jomera_150219.wav,n,c ,,,,,0,133,133,123,,,,,,,,,,,,,,,n,1,0.936348105999059,,,108,001,2019_Mar_15_0930,test_run,3.0.6,59.996937875982304,
155,ENW,ENW_65_hamfylla_150219.wav,n,c ,,,,,0,134,134,154,,,,,,,,,,,,,,,n,1,0.33632478499930585,,,108,001,2019_Mar_15_0930,test_run,3.0.6,59.996937875982304,
135,ENW,ENW_45_fammoarens_150219.wav,n,c ,,,,,0,135,135,134,,,,,,,,,,,,,,,n,1,0.9529033939979854,,,108,001,2019_Mar_15_0930,test_run,3.0.6,59.996937875982304,
117,ENW,ENW_27_lyssvinner_150219.wav,n,c ,,,,,0,136,136,116,,,,,,,,,,,,,,,n,1,0.3027589249977609,,,108,001,2019_Mar_15_0930,test_run,3.0.6,59.996937875982304,
109,ENW,ENW_19_morloren_150219.wav,n,c ,,,,,0,137,137,108,,,,,,,,,,,,,,,n,1,0.3526985880016582,,,108,001,2019_Mar_15_0930,test_run,3.0.6,59.996937875982304,
38,EFW,EFW_8_samman_070319.wav,j,c ,,,,,0,138,138,37,,,,,,,,,,,,,,,j,1,0.30362974599847803,,,108,001,2019_Mar_15_0930,test_run,3.0.6,59.996937875982304,
166,ENW,ENW_76_omfläskor_150219.wav,n,c ,,,,,0,139,139,165,,,,,,,,,,,,,,,n,1,0.3029288679972524,,,108,001,2019_Mar_15_0930,test_run,3.0.6,59.996937875982304,
72,EFW,EFW_42_naavaron_070319.wav,j,c ,,,,,0,140,140,71,,,,,,,,,,,,,,,j,1,0.30328252899926156,,,108,001,2019_Mar_15_0930,test_run,3.0.6,59.996937875982304,
121,ENW,ENW_31_romation_150219.wav,n,c ,,,,,0,141,141,120,,,,,,,,,,,,,,,n,1,0.286099896999076,,,108,001,2019_Mar_15_0930,test_run,3.0.6,59.996937875982304,
150,ENW,ENW_60_lackpenar_150219.wav,n,c ,,,,,0,142,142,149,,,,,,,,,,,,,,,n,1,0.4365317880001385,,,108,001,2019_Mar_15_0930,test_run,3.0.6,59.996937875982304,
29,ECW,ECW_29_mejerier_070319.wav,j,c ,,,,,0,143,143,28,,,,,,,,,,,,,,,j,1,0.3363258620011038,,,108,001,2019_Mar_15_0930,test_run,3.0.6,59.996937875982304,
160,ENW,ENW_70_roklarner_150219.wav,n,c ,,,,,0,144,144,159,,,,,,,,,,,,,,,n,1,0.3368339150038082,,,108,001,2019_Mar_15_0930,test_run,3.0.6,59.996937875982304,
30,ECW,ECW_30_recensioner_070319.wav,j,c ,,,,,0,145,145,29,,,,,,,,,,,,,,,j,1,0.3033795969968196,,,108,001,2019_Mar_15_0930,test_run,3.0.6,59.996937875982304,
22,ECW,ECW_22_anonyma_070319.wav,j,c ,,,,,0,146,146,21,,,,,,,,,,,,,,,j,1,0.28733005100366427,,,108,001,2019_Mar_15_0930,test_run,3.0.6,59.996937875982304,
128,ENW,ENW_38_roakanier_150219.wav,n,c ,,,,,0,147,147,127,,,,,,,,,,,,,,,n,1,0.27035129200521624,,,108,001,2019_Mar_15_0930,test_run,3.0.6,59.996937875982304,
10,ECW,ECW_10_flisa_070319.wav,j,c ,,,,,0,148,148,9,,,,,,,,,,,,,,,j,1,0.31997700600186363,,,108,001,2019_Mar_15_0930,test_run,3.0.6,59.996937875982304,
96,ENW,ENW_6_vilfroaser_150219.wav,n,c ,,,,,0,149,149,95,,,,,,,,,,,,,,,n,1,0.3359151219992782,,,108,001,2019_Mar_15_0930,test_run,3.0.6,59.996937875982304,
53,EFW,EFW_23_aamne_070319.wav,j,c ,,,,,0,150,150,52,,,,,,,,,,,,,,,j,1,0.3033759910031222,,,108,001,2019_Mar_15_0930,test_run,3.0.6,59.996937875982304,
103,ENW,ENW_13_forvaron_150219.wav,n,c ,,,,,0,151,151,102,,,,,,,,,,,,,,,n,1,0.08665053799632005,,,108,001,2019_Mar_15_0930,test_run,3.0.6,59.996937875982304,
93,ENW,ENW_3_vissorens_150219.wav,n,c ,,,,,0,152,152,92,,,,,,,,,,,,,,,n,1,0.5363282219987013,,,108,001,2019_Mar_15_0930,test_run,3.0.6,59.996937875982304,
35,EFW,EFW_5_samhaalle_070319.wav,j,c ,,,,,0,153,153,34,,,,,,,,,,,,,,,j,1,0.8860897499980638,,,108,001,2019_Mar_15_0930,test_run,3.0.6,59.996937875982304,
50,EFW,EFW_20_fenomen_070319.wav,j,c ,,,,,0,154,154,49,,,,,,,,,,,,,,,j,1,0.3201155429997016,,,108,001,2019_Mar_15_0930,test_run,3.0.6,59.996937875982304,
66,EFW,EFW_36_haarifroan_070319.wav,j,c ,,,,,0,155,155,65,,,,,,,,,,,,,,,j,1,0.3862996789976023,,,108,001,2019_Mar_15_0930,test_run,3.0.6,59.996937875982304,
179,ENW,ENW_89_mikenspoan_150219.wav,n,c ,,,,,0,156,156,178,,,,,,,,,,,,,,,n,1,0.33634440199966775,,,108,001,2019_Mar_15_0930,test_run,3.0.6,59.996937875982304,
36,EFW,EFW_6_massa_070319.wav,j,c ,,,,,0,157,157,35,,,,,,,,,,,,,,,j,1,0.2530513189994963,,,108,001,2019_Mar_15_0930,test_run,3.0.6,59.996937875982304,
42,EFW,EFW_12_foeremoal_070319.wav,j,c ,,,,,0,158,158,41,,,,,,,,,,,,,,,j,1,0.2532119809984579,,,108,001,2019_Mar_15_0930,test_run,3.0.6,59.996937875982304,
118,ENW,ENW_28_läkermask_150219.wav,n,c ,,,,,0,159,159,117,,,,,,,,,,,,,,,n,1,0.6866380050050793,,,108,001,2019_Mar_15_0930,test_run,3.0.6,59.996937875982304,
3,ECW,ECW_3_virus_070319.wav,j,c ,,,,,0,160,160,2,,,,,,,,,,,,,,,j,1,0.3531999490005546,,,108,001,2019_Mar_15_0930,test_run,3.0.6,59.996937875982304,
54,EFW,EFW_24_foersvinner_070319.wav,j,c ,,,,,0,161,161,53,,,,,,,,,,,,,,,j,1,0.3032226930008619,,,108,001,2019_Mar_15_0930,test_run,3.0.6,59.996937875982304,
141,ENW,ENW_51_skillare_150219.wav,n,c ,,,,,0,162,162,140,,,,,,,,,,,,,,,n,1,0.519709881999006,,,108,001,2019_Mar_15_0930,test_run,3.0.6,59.996937875982304,
77,EFW,EFW_47_invoanare_070319.wav,j,c ,,,,,0,163,163,76,,,,,,,,,,,,,,,j,1,0.3837195090018213,,,108,001,2019_Mar_15_0930,test_run,3.0.6,59.996937875982304,
115,ENW,ENW_25_affierar_150219.wav,n,c ,,,,,0,164,164,114,,,,,,,,,,,,,,,n,1,0.43678359200566774,,,108,001,2019_Mar_15_0930,test_run,3.0.6,59.996937875982304,
15,ECW,ECW_15_tjuvarna_070319.wav,j,c ,,,,,0,165,165,14,,,,,,,,,,,,,,,j,1,0.5505821420010761,,,108,001,2019_Mar_15_0930,test_run,3.0.6,59.996937875982304,
81,EFW,EFW_51_seminarier_070319.wav,j,c ,,,,,0,166,166,80,,,,,,,,,,,,,,,j,1,0.5197783820040058,,,108,001,2019_Mar_15_0930,test_run,3.0.6,59.996937875982304,
151,ENW,ENW_61_myckskina_150219.wav,n,c ,,,,,0,167,167,150,,,,,,,,,,,,,,,n,1,1.0194393310011947,,,108,001,2019_Mar_15_0930,test_run,3.0.6,59.996937875982304,
132,ENW,ENW_42_hamsforing_150219.wav,n,c ,,,,,0,168,168,131,,,,,,,,,,,,,,,n,1,0.8538330709998263,,,108,001,2019_Mar_15_0930,test_run,3.0.6,59.996937875982304,
8,ECW,ECW_8_fryshus_070319.wav,j,c ,,,,,0,169,169,7,,,,,,,,,,,,,,,j,1,0.6694508139989921,,,108,001,2019_Mar_15_0930,test_run,3.0.6,59.996937875982304,
55,EFW,EFW_25_informera_070319.wav,j,c ,,,,,0,170,170,54,,,,,,,,,,,,,,,j,1,0.28623398800118593,,,108,001,2019_Mar_15_0930,test_run,3.0.6,59.996937875982304,
136,ENW,ENW_46_pommera_150219.wav,n,c ,,,,,0,171,171,135,,,,,,,,,,,,,,,n,1,0.5863378610010841,,,108,001,2019_Mar_15_0930,test_run,3.0.6,59.996937875982304,
152,ENW,ENW_62_ljullepilja_150219.wav,n,c ,,,,,0,172,172,151,,,,,,,,,,,,,,,n,1,0.2698221820028266,,,108,001,2019_Mar_15_0930,test_run,3.0.6,59.996937875982304,
24,ECW,ECW_24_fysiker_070319.wav,j,c ,,,,,0,173,173,23,,,,,,,,,,,,,,,j,1,0.5523894389989437,,,108,001,2019_Mar_15_0930,test_run,3.0.6,59.996937875982304,
161,ENW,ENW_71_forskäckla_150219.wav,n,c ,,,,,0,174,174,160,,,,,,,,,,,,,,,n,1,0.3033806640014518,,,108,001,2019_Mar_15_0930,test_run,3.0.6,59.996937875982304,
138,ENW,ENW_48_skyjamsen_150219.wav,n,c ,,,,,0,175,175,137,,,,,,,,,,,,,,,n,1,0.8704970010003308,,,108,001,2019_Mar_15_0930,test_run,3.0.6,59.996937875982304,
175,ENW,ENW_85_forlinna_150219.wav,n,c ,,,,,0,176,176,174,,,,,,,,,,,,,,,n,1,0.3529311710008187,,,108,001,2019_Mar_15_0930,test_run,3.0.6,59.996937875982304,
114,ENW,ENW_24_samjoner_150219.wav,n,c ,,,,,0,177,177,113,,,,,,,,,,,,,,,n,1,0.3195405849983217,,,108,001,2019_Mar_15_0930,test_run,3.0.6,59.996937875982304,
17,ECW,ECW_17_majonnaas_070319.wav,j,c ,,,,,0,178,178,16,,,,,,,,,,,,,,,j,1,0.25311396199685987,,,108,001,2019_Mar_15_0930,test_run,3.0.6,59.996937875982304,
170,ENW,ENW_80_tjarfera_150219.wav,n,c ,,,,,0,179,179,169,,,,,,,,,,,,,,,n,1,0.3366207380022388,,,108,001,2019_Mar_15_0930,test_run,3.0.6,59.996937875982304,
9,TTF,TTF_9_bot_070319.wav,,,1,rating_t_final.csv,t,final,,,,,0,0,0,0,0,0,0,1,0,0,0,8,,,,,,5,17.319,108,001,2019_Mar_15_0930,test_run,3.0.6,59.996937875982304,
11,TTF,TTF_11_svit_070319.wav,,,1,rating_t_final.csv,t,final,,,,,0,0,0,0,0,0,0,1,0,1,1,10,,,,,,4,4.238,108,001,2019_Mar_15_0930,test_run,3.0.6,59.996937875982304,
23,TDF,TDF_23_hud_070319.wav,,,1,rating_t_final.csv,t,final,,,,,0,0,0,0,0,0,0,1,0,2,2,22,,,,,,4,2.655,108,001,2019_Mar_15_0930,test_run,3.0.6,59.996937875982304,
17,TDF,TDF_17_sked_070319.wav,,,1,rating_t_final.csv,t,final,,,,,0,0,0,0,0,0,0,1,0,3,3,16,,,,,,3,2.637,108,001,2019_Mar_15_0930,test_run,3.0.6,59.996937875982304,
16,TTF,TTF_16_font_070319.wav,,,1,rating_t_final.csv,t,final,,,,,0,0,0,0,0,0,0,1,0,4,4,15,,,,,,2,3.338,108,001,2019_Mar_15_0930,test_run,3.0.6,59.996937875982304,
1,TTF,TTF_1_rit_070319.wav,,,1,rating_t_final.csv,t,final,,,,,0,0,0,0,0,0,0,1,0,5,5,0,,,,,,5,2.021,108,001,2019_Mar_15_0930,test_run,3.0.6,59.996937875982304,
10,TTF,TTF_10_broet_070319.wav,,,1,rating_t_final.csv,t,final,,,,,0,0,0,0,0,0,0,1,0,6,6,9,,,,,,2,2.921,108,001,2019_Mar_15_0930,test_run,3.0.6,59.996937875982304,
28,TDF,TDF_28_brand_070319.wav,,,1,rating_t_final.csv,t,final,,,,,0,0,0,0,0,0,0,1,0,7,7,27,,,,,,4,1.171,108,001,2019_Mar_15_0930,test_run,3.0.6,59.996937875982304,
2,TTF,TTF_2_vet_070319.wav,,,1,rating_t_final.csv,t,final,,,,,0,0,0,0,0,0,0,1,0,8,8,1,,,,,,5,1.921,108,001,2019_Mar_15_0930,test_run,3.0.6,59.996937875982304,
13,TTF,TTF_13_gjut_070319.wav,,,1,rating_t_final.csv,t,final,,,,,0,0,0,0,0,0,0,1,0,9,9,12,,,,,,2,1.555,108,001,2019_Mar_15_0930,test_run,3.0.6,59.996937875982304,
27,TDF,TDF_27_sand_070319.wav,,,1,rating_t_final.csv,t,final,,,,,0,0,0,0,0,0,0,1,0,10,10,26,,,,,,3,0.804,108,001,2019_Mar_15_0930,test_run,3.0.6,59.996937875982304,
18,TDF,TDF_18_sjud_070319.wav,,,1,rating_t_final.csv,t,final,,,,,0,0,0,0,0,0,0,1,0,11,11,17,,,,,,3,1.353,108,001,2019_Mar_15_0930,test_run,3.0.6,59.996937875982304,
20,TDF,TDF_20_god_070319.wav,,,1,rating_t_final.csv,t,final,,,,,0,0,0,0,0,0,0,1,0,12,12,19,,,,,,2,0.771,108,001,2019_Mar_15_0930,test_run,3.0.6,59.996937875982304,
26,TDF,TDF_26_rymd_070319.wav,,,1,rating_t_final.csv,t,final,,,,,0,0,0,0,0,0,0,1,0,13,13,25,,,,,,4,0.987,108,001,2019_Mar_15_0930,test_run,3.0.6,59.996937875982304,
22,TDF,TDF_22_hed_070319.wav,,,1,rating_t_final.csv,t,final,,,,,0,0,0,0,0,0,0,1,0,14,14,21,,,,,,5,0.821,108,001,2019_Mar_15_0930,test_run,3.0.6,59.996937875982304,
24,TDF,TDF_24_smid_070319.wav,,,1,rating_t_final.csv,t,final,,,,,0,0,0,0,0,0,0,1,0,15,15,23,,,,,,1,2.455,108,001,2019_Mar_15_0930,test_run,3.0.6,59.996937875982304,
21,TDF,TDF_21_ljod _070319.wav,,,1,rating_t_final.csv,t,final,,,,,0,0,0,0,0,0,0,1,0,16,16,20,,,,,,3,0.654,108,001,2019_Mar_15_0930,test_run,3.0.6,59.996937875982304,
32,TDF,TDF_32_hoard_070319.wav,,,1,rating_t_final.csv,t,final,,,,,0,0,0,0,0,0,0,1,0,17,17,31,,,,,,3,1.638,108,001,2019_Mar_15_0930,test_run,3.0.6,59.996937875982304,
25,TDF,TDF_25_synd_070319.wav,,,1,rating_t_final.csv,t,final,,,,,0,0,0,0,0,0,0,1,0,18,18,24,,,,,,4,0.955,108,001,2019_Mar_15_0930,test_run,3.0.6,59.996937875982304,
8,TTF,TTF_8_noet_070319.wav,,,1,rating_t_final.csv,t,final,,,,,0,0,0,0,0,0,0,1,0,19,19,7,,,,,,1,2.721,108,001,2019_Mar_15_0930,test_run,3.0.6,59.996937875982304,
6,TTF,TTF_6_voart_070319.wav,,,1,rating_t_final.csv,t,final,,,,,0,0,0,0,0,0,0,1,0,20,20,5,,,,,,3,3.421,108,001,2019_Mar_15_0930,test_run,3.0.6,59.996937875982304,
12,TTF,TTF_12_smet_070319.wav,,,1,rating_t_final.csv,t,final,,,,,0,0,0,0,0,0,0,1,0,21,21,11,,,,,,3,2.371,108,001,2019_Mar_15_0930,test_run,3.0.6,59.996937875982304,
7,TTF,TTF_7_vit_070319.wav,,,1,rating_t_final.csv,t,final,,,,,0,0,0,0,0,0,0,1,0,22,22,6,,,,,,4,1.255,108,001,2019_Mar_15_0930,test_run,3.0.6,59.996937875982304,
19,TDF,TDF_19_sjod_070319.wav,,,1,rating_t_final.csv,t,final,,,,,0,0,0,0,0,0,0,1,0,23,23,18,,,,,,1,2.288,108,001,2019_Mar_15_0930,test_run,3.0.6,59.996937875982304,
30,TDF,TDF_30_sladd_070319.wav,,,1,rating_t_final.csv,t,final,,,,,0,0,0,0,0,0,0,1,0,24,24,29,,,,,,6,2.455,108,001,2019_Mar_15_0930,test_run,3.0.6,59.996937875982304,
29,TDF,TDF_29_baadd_070319.wav,,,1,rating_t_final.csv,t,final,,,,,0,0,0,0,0,0,0,1,0,25,25,28,,,,,,3,1.871,108,001,2019_Mar_15_0930,test_run,3.0.6,59.996937875982304,
4,TTF,TTF_4_roet_070319.wav,,,1,rating_t_final.csv,t,final,,,,,0,0,0,0,0,0,0,1,0,26,26,3,,,,,,1,1.588,108,001,2019_Mar_15_0930,test_run,3.0.6,59.996937875982304,
14,TTF,TTF_14_mot_070319.wav,,,1,rating_t_final.csv,t,final,,,,,0,0,0,0,0,0,0,1,0,27,27,13,,,,,,4,1.071,108,001,2019_Mar_15_0930,test_run,3.0.6,59.996937875982304,
5,TTF,TTF_5_voat_070319.wav,,,1,rating_t_final.csv,t,final,,,,,0,0,0,0,0,0,0,1,0,28,28,4,,,,,,3,1.188,108,001,2019_Mar_15_0930,test_run,3.0.6,59.996937875982304,
15,TTF,TTF_15_not_070319.wav,,,1,rating_t_final.csv,t,final,,,,,0,0,0,0,0,0,0,1,0,29,29,14,,,,,,2,3.755,108,001,2019_Mar_15_0930,test_run,3.0.6,59.996937875982304,
31,TDF,TDF_31_brodd_070319.wav,,,1,rating_t_final.csv,t,final,,,,,0,0,0,0,0,0,0,1,0,30,30,30,,,,,,6,1.755,108,001,2019_Mar_15_0930,test_run,3.0.6,59.996937875982304,
3,TTF,TTF_3_raat_070319.wav,,,1,rating_t_final.csv,t,final,,,,,0,0,0,0,0,0,0,1,0,31,31,2,,,,,,1,2.987,108,001,2019_Mar_15_0930,test_run,3.0.6,59.996937875982304,
22,TTF,TTF_22_het_070319.wav,,,1,rating_d_final.csv,d,final,,,,,0,0,0,0,0,1,1,0,0,0,0,21,,,,,,2,3.321,108,001,2019_Mar_15_0930,test_run,3.0.6,59.996937875982304,
25,TTF,TTF_25_synt_070319.wav,,,1,rating_d_final.csv,d,final,,,,,0,0,0,0,0,1,1,0,0,1,1,24,,,,,,1,2.121,108,001,2019_Mar_15_0930,test_run,3.0.6,59.996937875982304,
10,TDF,TDF_10_brod_070319.wav,,,1,rating_d_final.csv,d,final,,,,,0,0,0,0,0,1,1,0,0,2,2,9,,,,,,3,0.905,108,001,2019_Mar_15_0930,test_run,3.0.6,59.996937875982304,
3,TDF,TDF_3_raad_070319.wav,,,1,rating_d_final.csv,d,final,,,,,0,0,0,0,0,1,1,0,0,3,3,2,,,,,,4,1.686,108,001,2019_Mar_15_0930,test_run,3.0.6,59.996937875982304,
7,TDF,TDF_7_vid_070319.wav,,,1,rating_d_final.csv,d,final,,,,,0,0,0,0,0,1,1,0,0,4,4,6,,,,,,2,1.621,108,001,2019_Mar_15_0930,test_run,3.0.6,59.996937875982304,
24,TTF,TTF_24_smit_070319.wav,,,1,rating_d_final.csv,d,final,,,,,0,0,0,0,0,1,1,0,0,5,5,23,,,,,,3,0.771,108,001,2019_Mar_15_0930,test_run,3.0.6,59.996937875982304,
5,TDF,TDF_5_voad_070319.wav,,,1,rating_d_final.csv,d,final,,,,,0,0,0,0,0,1,1,0,0,6,6,4,,,,,,6,1.821,108,001,2019_Mar_15_0930,test_run,3.0.6,59.996937875982304,
29,TTF,TTF_29_bett_070319.wav,,,1,rating_d_final.csv,d,final,,,,,0,0,0,0,0,1,1,0,0,7,7,28,,,,,,1,2.921,108,001,2019_Mar_15_0930,test_run,3.0.6,59.996937875982304,
28,TTF,TTF_28_brant_070319.wav,,,1,rating_d_final.csv,d,final,,,,,0,0,0,0,0,1,1,0,0,8,8,27,,,,,,1,0.838,108,001,2019_Mar_15_0930,test_run,3.0.6,59.996937875982304,
12,TDF,TDF_12_smed_070319.wav,,,1,rating_d_final.csv,d,final,,,,,0,0,0,0,0,1,1,0,0,9,9,11,,,,,,5,1.588,108,001,2019_Mar_15_0930,test_run,3.0.6,59.996937875982304,
19,TTF,TTF_19_skoet_070319.wav,,,1,rating_d_final.csv,d,final,,,,,0,0,0,0,0,1,1,0,0,10,10,18,,,,,,1,2.172,108,001,2019_Mar_15_0930,test_run,3.0.6,59.996937875982304,
15,TDF,TDF_15_nod_070319.wav,,,1,rating_d_final.csv,d,final,,,,,0,0,0,0,0,1,1,0,0,11,11,14,,,,,,3,1.004,108,001,2019_Mar_15_0930,test_run,3.0.6,59.996937875982304,
1,TDF,TDF_1_rid_070319.wav,,,1,rating_d_final.csv,d,final,,,,,0,0,0,0,0,1,1,0,0,12,12,0,,,,,,2,1.038,108,001,2019_Mar_15_0930,test_run,3.0.6,59.996937875982304,
31,TTF,TTF_31_brott_070319.wav,,,1,rating_d_final.csv,d,final,,,,,0,0,0,0,0,1,1,0,0,13,13,30,,,,,,1,2.788,108,001,2019_Mar_15_0930,test_run,3.0.6,59.996937875982304,
18,TTF,TTF_18_skjut_070319.wav,,,1,rating_d_final.csv,d,final,,,,,0,0,0,0,0,1,1,0,0,14,14,17,,,,,,1,1.638,108,001,2019_Mar_15_0930,test_run,3.0.6,59.996937875982304,
23,TTF,TTF_23_hut_070319.wav,,,1,rating_d_final.csv,d,final,,,,,0,0,0,0,0,1,1,0,0,15,15,22,,,,,,1,1.838,108,001,2019_Mar_15_0930,test_run,3.0.6,59.996937875982304,
6,TDF,TDF_6_voard_070319.wav,,,1,rating_d_final.csv,d,final,,,,,0,0,0,0,0,1,1,0,0,16,16,5,,,,,,5,0.921,108,001,2019_Mar_15_0930,test_run,3.0.6,59.996937875982304,
20,TTF,TTF_20_got_070319.wav,,,1,rating_d_final.csv,d,final,,,,,0,0,0,0,0,1,1,0,0,17,17,19,,,,,,2,4.172,108,001,2019_Mar_15_0930,test_run,3.0.6,59.996937875982304,
14,TDF,TDF_14_mod_070319.wav,,,1,rating_d_final.csv,d,final,,,,,0,0,0,0,0,1,1,0,0,18,18,13,,,,,,6,1.604,108,001,2019_Mar_15_0930,test_run,3.0.6,59.996937875982304,
27,TTF,TTF_27_sant_070319.wav,,,1,rating_d_final.csv,d,final,,,,,0,0,0,0,0,1,1,0,0,19,19,26,,,,,,1,1.737,108,001,2019_Mar_15_0930,test_run,3.0.6,59.996937875982304,
21,TTF,TTF_21_gjoet_070319.wav,,,1,rating_d_final.csv,d,final,,,,,0,0,0,0,0,1,1,0,0,20,20,20,,,,,,1,1.522,108,001,2019_Mar_15_0930,test_run,3.0.6,59.996937875982304,
30,TTF,TTF_30_slatt_070319.wav,,,1,rating_d_final.csv,d,final,,,,,0,0,0,0,0,1,1,0,0,21,21,29,,,,,,1,1.919,108,001,2019_Mar_15_0930,test_run,3.0.6,59.996937875982304,
9,TDF,TDF_9_bod_070319.wav,,,1,rating_d_final.csv,d,final,,,,,0,0,0,0,0,1,1,0,0,22,22,8,,,,,,3,0.855,108,001,2019_Mar_15_0930,test_run,3.0.6,59.996937875982304,
17,TTF,TTF_17_sket_070319.wav,,,1,rating_d_final.csv,d,final,,,,,0,0,0,0,0,1,1,0,0,23,23,16,,,,,,1,3.204,108,001,2019_Mar_15_0930,test_run,3.0.6,59.996937875982304,
26,TTF,TTF_26_rymt_070319.wav,,,1,rating_d_final.csv,d,final,,,,,0,0,0,0,0,1,1,0,0,24,24,25,,,,,,2,1.905,108,001,2019_Mar_15_0930,test_run,3.0.6,59.996937875982304,
11,TDF,TDF_11_svid_070319.wav,,,1,rating_d_final.csv,d,final,,,,,0,0,0,0,0,1,1,0,0,25,25,10,,,,,,1,2.405,108,001,2019_Mar_15_0930,test_run,3.0.6,59.996937875982304,
2,TDF,TDF_2_ved_070319.wav,,,1,rating_d_final.csv,d,final,,,,,0,0,0,0,0,1,1,0,0,26,26,1,,,,,,5,2.404,108,001,2019_Mar_15_0930,test_run,3.0.6,59.996937875982304,
4,TDF,TDF_4_rod_070319.wav,,,1,rating_d_final.csv,d,final,,,,,0,0,0,0,0,1,1,0,0,27,27,3,,,,,,6,2.671,108,001,2019_Mar_15_0930,test_run,3.0.6,59.996937875982304,
8,TDF,TDF_8_nod_070319.wav,,,1,rating_d_final.csv,d,final,,,,,0,0,0,0,0,1,1,0,0,28,28,7,,,,,,6,1.604,108,001,2019_Mar_15_0930,test_run,3.0.6,59.996937875982304,
32,TTF,TTF_32_hoart_070319.wav,,,1,rating_d_final.csv,d,final,,,,,0,0,0,0,0,1,1,0,0,29,29,31,,,,,,1,3.071,108,001,2019_Mar_15_0930,test_run,3.0.6,59.996937875982304,
16,TDF,TDF_16_fond_070319.wav,,,1,rating_d_final.csv,d,final,,,,,0,0,0,0,0,1,1,0,0,30,30,15,,,,,,4,1.305,108,001,2019_Mar_15_0930,test_run,3.0.6,59.996937875982304,
13,TDF,TDF_13_ljud_070319.wav,,,1,rating_d_final.csv,d,final,,,,,0,0,0,0,0,1,1,0,0,31,31,12,,,,,,3,1.471,108,001,2019_Mar_15_0930,test_run,3.0.6,59.996937875982304,
23,TDI,TDI_23_doa_150219.wav,,,2,rating_t_initial.csv,t,initial,,,,,0,1,1,1,0,0,0,1,0,0,0,22,,,,,,1,1.922,108,001,2019_Mar_15_0930,test_run,3.0.6,59.996937875982304,
20,TDI,TDI_20_dur_150219.wav,,,2,rating_t_initial.csv,t,initial,,,,,0,1,1,1,0,0,0,1,0,1,1,19,,,,,,1,1.672,108,001,2019_Mar_15_0930,test_run,3.0.6,59.996937875982304,
24,TDI,TDI_24_daack_150219.wav,,,2,rating_t_initial.csv,t,initial,,,,,0,1,1,1,0,0,0,1,0,2,2,23,,,,,,1,2.988,108,001,2019_Mar_15_0930,test_run,3.0.6,59.996937875982304,
3,TTI,TTI_3_tal_150219.wav,,,2,rating_t_initial.csv,t,initial,,,,,0,1,1,1,0,0,0,1,0,3,3,2,,,,,,5,0.872,108,001,2019_Mar_15_0930,test_run,3.0.6,59.996937875982304,
5,TTI,TTI_5_tass_150219.wav,,,2,rating_t_initial.csv,t,initial,,,,,0,1,1,1,0,0,0,1,0,4,4,4,,,,,,5,1.288,108,001,2019_Mar_15_0930,test_run,3.0.6,59.996937875982304,
14,TTI,TTI_14_tok_150219.wav,,,2,rating_t_initial.csv,t,initial,,,,,0,1,1,1,0,0,0,1,0,5,5,13,,,,,,6,1.555,108,001,2019_Mar_15_0930,test_run,3.0.6,59.996937875982304,
16,TDI,TDI_16_don_150219.wav,,,2,rating_t_initial.csv,t,initial,,,,,0,1,1,1,0,0,0,1,0,6,6,15,,,,,,1,1.137,108,001,2019_Mar_15_0930,test_run,3.0.6,59.996937875982304,
13,TTI,TTI_13_tog_150219.wav,,,2,rating_t_initial.csv,t,initial,,,,,0,1,1,1,0,0,0,1,0,7,7,12,,,,,,4,0.488,108,001,2019_Mar_15_0930,test_run,3.0.6,59.996937875982304,
25,TDI,TDI_25_daar_150219.wav,,,2,rating_t_initial.csv,t,initial,,,,,0,1,1,1,0,0,0,1,0,8,8,24,,,,,,1,1.804,108,001,2019_Mar_15_0930,test_run,3.0.6,59.996937875982304,
26,TDI,TDI_26_doe_150219.wav,,,2,rating_t_initial.csv,t,initial,,,,,0,1,1,1,0,0,0,1,0,9,9,25,,,,,,1,2.188,108,001,2019_Mar_15_0930,test_run,3.0.6,59.996937875982304,
18,TDI,TDI_18_dum_150219.wav,,,2,rating_t_initial.csv,t,initial,,,,,0,1,1,1,0,0,0,1,0,10,10,17,,,,,,1,1.788,108,001,2019_Mar_15_0930,test_run,3.0.6,59.996937875982304,
11,TTI,TTI_11_tipp_150219.wav,,,2,rating_t_initial.csv,t,initial,,,,,0,1,1,1,0,0,0,1,0,11,11,10,,,,,,6,1.522,108,001,2019_Mar_15_0930,test_run,3.0.6,59.996937875982304,
15,TDI,TDI_15_dom_150219.wav,,,2,rating_t_initial.csv,t,initial,,,,,0,1,1,1,0,0,0,1,0,12,12,14,,,,,,1,1.871,108,001,2019_Mar_15_0930,test_run,3.0.6,59.996937875982304,
7,TTI,TTI_7_tenn_150219.wav,,,2,rating_t_initial.csv,t,initial,,,,,0,1,1,1,0,0,0,1,0,13,13,6,,,,,,6,0.538,108,001,2019_Mar_15_0930,test_run,3.0.6,59.996937875982304,
6,TTI,TTI_6_teg_150219.wav,,,2,rating_t_initial.csv,t,initial,,,,,0,1,1,1,0,0,0,1,0,14,14,5,,,,,,6,0.688,108,001,2019_Mar_15_0930,test_run,3.0.6,59.996937875982304,
8,TTI,TTI_8_tia_150219.wav,,,2,rating_t_initial.csv,t,initial,,,,,0,1,1,1,0,0,0,1,0,15,15,7,,,,,,7,0.921,108,001,2019_Mar_15_0930,test_run,3.0.6,59.996937875982304,
12,TTI,TTI_12_toa_150219.wav,,,2,rating_t_initial.csv,t,initial,,,,,0,1,1,1,0,0,0,1,0,16,16,11,,,,,,7,0.871,108,001,2019_Mar_15_0930,test_run,3.0.6,59.996937875982304,
22,TDI,TDI_22_dy_150219.wav,,,2,rating_t_initial.csv,t,initial,,,,,0,1,1,1,0,0,0,1,0,17,17,21,,,,,,1,1.172,108,001,2019_Mar_15_0930,test_run,3.0.6,59.996937875982304,
2,TTI,TTI_2_tagg_150219.wav,,,2,rating_t_initial.csv,t,initial,,,,,0,1,1,1,0,0,0,1,0,18,18,1,,,,,,4,1.388,108,001,2019_Mar_15_0930,test_run,3.0.6,59.996937875982304,
10,TTI,TTI_10_titt_150219.wav,,,2,rating_t_initial.csv,t,initial,,,,,0,1,1,1,0,0,0,1,0,19,19,9,,,,,,5,0.953,108,001,2019_Mar_15_0930,test_run,3.0.6,59.996937875982304,
9,TTI,TTI_9_till_150219.wav,,,2,rating_t_initial.csv,t,initial,,,,,0,1,1,1,0,0,0,1,0,20,20,8,,,,,,6,0.804,108,001,2019_Mar_15_0930,test_run,3.0.6,59.996937875982304,
4,TTI,TTI_4_tam_150219.wav,,,2,rating_t_initial.csv,t,initial,,,,,0,1,1,1,0,0,0,1,0,21,21,3,,,,,,7,0.971,108,001,2019_Mar_15_0930,test_run,3.0.6,59.996937875982304,
1,TTI,TTI_1_tag_150219.wav,,,2,rating_t_initial.csv,t,initial,,,,,0,1,1,1,0,0,0,1,0,22,22,0,,,,,,7,1.005,108,001,2019_Mar_15_0930,test_run,3.0.6,59.996937875982304,
17,TDI,TDI_17_dopp_150219.wav,,,2,rating_t_initial.csv,t,initial,,,,,0,1,1,1,0,0,0,1,0,23,23,16,,,,,,1,1.388,108,001,2019_Mar_15_0930,test_run,3.0.6,59.996937875982304,
19,TDI,TDI_19_dun_150219.wav,,,2,rating_t_initial.csv,t,initial,,,,,0,1,1,1,0,0,0,1,0,24,24,18,,,,,,1,0.905,108,001,2019_Mar_15_0930,test_run,3.0.6,59.996937875982304,
21,TDI,TDI_21_dugg_150219.wav,,,2,rating_t_initial.csv,t,initial,,,,,0,1,1,1,0,0,0,1,0,25,25,20,,,,,,1,1.304,108,001,2019_Mar_15_0930,test_run,3.0.6,59.996937875982304,
27,TDI,TDI_27_doem_edit_150219.wav,,,2,rating_t_initial.csv,t,initial,,,,,0,1,1,1,0,0,0,1,0,26,26,26,,,,,,1,0.804,108,001,2019_Mar_15_0930,test_run,3.0.6,59.996937875982304,
10,TDI,TDI_10_ditt_150219.wav,,,2,rating_d_initial.csv,d,initial,,,,,0,1,1,1,0,1,1,0,0,0,0,9,,,,,,7,2.821,108,001,2019_Mar_15_0930,test_run,3.0.6,59.996937875982304,
14,TDI,TDI_14_dok_150219.wav,,,2,rating_d_initial.csv,d,initial,,,,,0,1,1,1,0,1,1,0,0,1,1,13,,,,,,3,4.456,108,001,2019_Mar_15_0930,test_run,3.0.6,59.996937875982304,
5,TDI,TDI_5_dass_150219.wav,,,2,rating_d_initial.csv,d,initial,,,,,0,1,1,1,0,1,1,0,0,2,2,4,,,,,,6,1.255,108,001,2019_Mar_15_0930,test_run,3.0.6,59.996937875982304,
9,TDI,TDI_9_dill_150219.wav,,,2,rating_d_initial.csv,d,initial,,,,,0,1,1,1,0,1,1,0,0,3,3,8,,,,,,7,0.738,108,001,2019_Mar_15_0930,test_run,3.0.6,59.996937875982304,
17,TTI,TTI_17_topp_150219.wav,,,2,rating_d_initial.csv,d,initial,,,,,0,1,1,1,0,1,1,0,0,4,4,16,,,,,,1,1.071,108,001,2019_Mar_15_0930,test_run,3.0.6,59.996937875982304,
24,TTI,TTI_24_taack_150219.wav,,,2,rating_d_initial.csv,d,initial,,,,,0,1,1,1,0,1,1,0,0,5,5,23,,,,,,1,0.755,108,001,2019_Mar_15_0930,test_run,3.0.6,59.996937875982304,
23,TTI,TTI_23_toa_150219.wav,,,2,rating_d_initial.csv,d,initial,,,,,0,1,1,1,0,1,1,0,0,6,6,22,,,,,,1,1.821,108,001,2019_Mar_15_0930,test_run,3.0.6,59.996937875982304,
1,TDI,TDI_1_dag_150219.wav,,,2,rating_d_initial.csv,d,initial,,,,,0,1,1,1,0,1,1,0,0,7,7,0,,,,,,6,1.271,108,001,2019_Mar_15_0930,test_run,3.0.6,59.996937875982304,
16,TTI,TTI_16_ton_150219.wav,,,2,rating_d_initial.csv,d,initial,,,,,0,1,1,1,0,1,1,0,0,8,8,15,,,,,,1,1.588,108,001,2019_Mar_15_0930,test_run,3.0.6,59.996937875982304,
7,TDI,TDI_7_den_150219.wav,,,2,rating_d_initial.csv,d,initial,,,,,0,1,1,1,0,1,1,0,0,9,9,6,,,,,,7,1.522,108,001,2019_Mar_15_0930,test_run,3.0.6,59.996937875982304,
3,TDI,TDI_3_dal_150219.wav,,,2,rating_d_initial.csv,d,initial,,,,,0,1,1,1,0,1,1,0,0,10,10,2,,,,,,6,1.338,108,001,2019_Mar_15_0930,test_run,3.0.6,59.996937875982304,
25,TTI,TTI_25_taar_150219.wav,,,2,rating_d_initial.csv,d,initial,,,,,0,1,1,1,0,1,1,0,0,11,11,24,,,,,,1,1.004,108,001,2019_Mar_15_0930,test_run,3.0.6,59.996937875982304,
6,TDI,TDI_6_deg_150219.wav,,,2,rating_d_initial.csv,d,initial,,,,,0,1,1,1,0,1,1,0,0,12,12,5,,,,,,4,1.538,108,001,2019_Mar_15_0930,test_run,3.0.6,59.996937875982304,
21,TTI,TTI_21_tugg_150219.wav,,,2,rating_d_initial.csv,d,initial,,,,,0,1,1,1,0,1,1,0,0,13,13,20,,,,,,1,2.788,108,001,2019_Mar_15_0930,test_run,3.0.6,59.996937875982304,
18,TTI,TTI_18_tum_150219.wav,,,2,rating_d_initial.csv,d,initial,,,,,0,1,1,1,0,1,1,0,0,14,14,17,,,,,,2,1.538,108,001,2019_Mar_15_0930,test_run,3.0.6,59.996937875982304,
12,TDI,TDI_12_doa_150219.wav,,,2,rating_d_initial.csv,d,initial,,,,,0,1,1,1,0,1,1,0,0,15,15,11,,,,,,3,3.803,108,001,2019_Mar_15_0930,test_run,3.0.6,59.996937875982304,
2,TDI,TDI_2_dagg_150219.wav,,,2,rating_d_initial.csv,d,initial,,,,,0,1,1,1,0,1,1,0,0,16,16,1,,,,,,1,1.705,108,001,2019_Mar_15_0930,test_run,3.0.6,59.996937875982304,
4,TDI,TDI_4_dam_150219.wav,,,2,rating_d_initial.csv,d,initial,,,,,0,1,1,1,0,1,1,0,0,17,17,3,,,,,,6,1.338,108,001,2019_Mar_15_0930,test_run,3.0.6,59.996937875982304,
13,TDI,TDI_13_dog_150219.wav,,,2,rating_d_initial.csv,d,initial,,,,,0,1,1,1,0,1,1,0,0,18,18,12,,,,,,4,4.487,108,001,2019_Mar_15_0930,test_run,3.0.6,59.996937875982304,
20,TTI,TTI_20_tur_150219.wav,,,2,rating_d_initial.csv,d,initial,,,,,0,1,1,1,0,1,1,0,0,19,19,19,,,,,,1,2.805,108,001,2019_Mar_15_0930,test_run,3.0.6,59.996937875982304,
15,TTI,TTI_15_tom_150219.wav,,,2,rating_d_initial.csv,d,initial,,,,,0,1,1,1,0,1,1,0,0,20,20,14,,,,,,1,1.271,108,001,2019_Mar_15_0930,test_run,3.0.6,59.996937875982304,
22,TTI,TTI_22_ty_150219.wav,,,2,rating_d_initial.csv,d,initial,,,,,0,1,1,1,0,1,1,0,0,21,21,21,,,,,,1,1.021,108,001,2019_Mar_15_0930,test_run,3.0.6,59.996937875982304,
26,TTI,TTI_26_toe_150219.wav,,,2,rating_d_initial.csv,d,initial,,,,,0,1,1,1,0,1,1,0,0,22,22,25,,,,,,1,2.253,108,001,2019_Mar_15_0930,test_run,3.0.6,59.996937875982304,
27,TTI,TTI_27_toem_150219.wav,,,2,rating_d_initial.csv,d,initial,,,,,0,1,1,1,0,1,1,0,0,23,23,26,,,,,,1,2.021,108,001,2019_Mar_15_0930,test_run,3.0.6,59.996937875982304,
11,TDI,TDI_11_dipp_150219.wav,,,2,rating_d_initial.csv,d,initial,,,,,0,1,1,1,0,1,1,0,0,24,24,10,,,,,,6,1.154,108,001,2019_Mar_15_0930,test_run,3.0.6,59.996937875982304,
19,TTI,TTI_19_tun_150219.wav,,,2,rating_d_initial.csv,d,initial,,,,,0,1,1,1,0,1,1,0,0,25,25,18,,,,,,4,0.871,108,001,2019_Mar_15_0930,test_run,3.0.6,59.996937875982304,
8,TDI,TDI_8_dia_150219.wav,,,2,rating_d_initial.csv,d,initial,,,,,0,1,1,1,0,1,1,0,0,26,26,7,,,,,,7,1.321,108,001,2019_Mar_15_0930,test_run,3.0.6,59.996937875982304,
