item,item_cond,sound,corr_ans,group,block_id,listname,rating_for,position,trials.thisRepN,trials.thisTrialN,trials.thisN,trials.thisIndex,run_block_type.thisRepN,run_block_type.thisTrialN,run_block_type.thisN,run_block_type.thisIndex,routine.thisRepN,routine.thisTrialN,routine.thisN,routine.thisIndex,rating_trials.thisRepN,rating_trials.thisTrialN,rating_trials.thisN,rating_trials.thisIndex,key_resp_1.keys,key_resp_1.rt,key_resp_2.keys,key_resp_2.corr,key_resp_2.rt,rating_1.response,rating_1.rt,participant,session,date,expName,psychopyVersion,frameRate,
,,,,,,,,,,,,,,,,,,,,,,,,,space,26.53694049300975,,,,,,109,001,2019_Mar_15_1032,test_run,3.0.6,60.01956001173803,
164,ENW,ENW_74_malsera_150219.wav,n,t,,,,,0,0,0,163,,,,,,,,,,,,,,,n,1,1.3698542649945011,,,109,001,2019_Mar_15_1032,test_run,3.0.6,60.01956001173803,
87,EFW,EFW_57_loenerna_070319.wav,j,t,,,,,0,1,1,86,,,,,,,,,,,,,,,j,1,1.58595122800034,,,109,001,2019_Mar_15_1032,test_run,3.0.6,60.01956001173803,
57,EFW,EFW_27_analysera_070319.wav,j,t,,,,,0,2,2,56,,,,,,,,,,,,,,,j,1,0.7860885520058218,,,109,001,2019_Mar_15_1032,test_run,3.0.6,60.01956001173803,
88,EFW,EFW_58_examen_070319.wav,j,t,,,,,0,3,3,87,,,,,,,,,,,,,,,j,1,0.5195887060108362,,,109,001,2019_Mar_15_1032,test_run,3.0.6,60.01956001173803,
90,EFW,EFW_60_insulin_070319.wav,j,t,,,,,0,4,4,89,,,,,,,,,,,,,,,j,1,0.3523797289963113,,,109,001,2019_Mar_15_1032,test_run,3.0.6,60.01956001173803,
94,ENW,ENW_4_kyllfaren_150219.wav,n,t,,,,,0,5,5,93,,,,,,,,,,,,,,,n,1,2.4025006980082253,,,109,001,2019_Mar_15_1032,test_run,3.0.6,60.01956001173803,
41,EFW,EFW_11_maanniskor_070319.wav,j,t,,,,,0,6,6,40,,,,,,,,,,,,,,,j,1,0.3861549039866077,,,109,001,2019_Mar_15_1032,test_run,3.0.6,60.01956001173803,
137,ENW,ENW_47_oafläppen_150219.wav,n,t,,,,,0,7,7,136,,,,,,,,,,,,,,,n,1,1.4863961759983795,,,109,001,2019_Mar_15_1032,test_run,3.0.6,60.01956001173803,
34,EFW,EFW_4_foerminska_070319.wav,j,t,,,,,0,8,8,33,,,,,,,,,,,,,,,j,1,0.8356532470061211,,,109,001,2019_Mar_15_1032,test_run,3.0.6,60.01956001173803,
111,ENW,ENW_21_tjulning_150219.wav,n,t,,,,,0,9,9,110,,,,,,,,,,,,,,,j,0,0.6358750000072177,,,109,001,2019_Mar_15_1032,test_run,3.0.6,60.01956001173803,
7,ETW,ETW_7_hemland_070319.wav,j,t,,,,,0,10,10,6,,,,,,,,,,,,,,,j,1,0.5362659099919256,,,109,001,2019_Mar_15_1032,test_run,3.0.6,60.01956001173803,
106,ENW,ENW_16_rolinkar_150219.wav,n,t,,,,,0,11,11,105,,,,,,,,,,,,,,,n,1,1.9694012870022561,,,109,001,2019_Mar_15_1032,test_run,3.0.6,60.01956001173803,
122,ENW,ENW_32_fonering_150219.wav,n,t,,,,,0,12,12,121,,,,,,,,,,,,,,,j,0,2.01968008800759,,,109,001,2019_Mar_15_1032,test_run,3.0.6,60.01956001173803,
124,ENW,ENW_34_jomera_150219.wav,n,t,,,,,0,13,13,123,,,,,,,,,,,,,,,n,1,0.7024695620057173,,,109,001,2019_Mar_15_1032,test_run,3.0.6,60.01956001173803,
129,ENW,ENW_39_ljusonar_150219.wav,n,t,,,,,0,14,14,128,,,,,,,,,,,,,,,n,1,1.9690607970114797,,,109,001,2019_Mar_15_1032,test_run,3.0.6,60.01956001173803,
45,EFW,EFW_15_oeverens_070319.wav,j,t,,,,,0,15,15,44,,,,,,,,,,,,,,,j,1,0.4029453029943397,,,109,001,2019_Mar_15_1032,test_run,3.0.6,60.01956001173803,
112,ENW,ENW_22_fjäserna_150219.wav,n,t,,,,,0,16,16,111,,,,,,,,,,,,,,,j,0,1.5532461459952174,,,109,001,2019_Mar_15_1032,test_run,3.0.6,60.01956001173803,
144,ENW,ENW_54_lomering_150219.wav,n,t,,,,,0,17,17,143,,,,,,,,,,,,,,,j,0,1.3364478029980091,,,109,001,2019_Mar_15_1032,test_run,3.0.6,60.01956001173803,
103,ENW,ENW_13_forvaron_150219.wav,n,t,,,,,0,18,18,102,,,,,,,,,,,,,,,n,1,2.5355935499974294,,,109,001,2019_Mar_15_1032,test_run,3.0.6,60.01956001173803,
105,ENW,ENW_15_forfeckla_150219.wav,n,t,,,,,0,19,19,104,,,,,,,,,,,,,,,n,1,2.3188114880031208,,,109,001,2019_Mar_15_1032,test_run,3.0.6,60.01956001173803,
92,ENW,ENW_2_overralka_150219.wav,n,t,,,,,0,20,20,91,,,,,,,,,,,,,,,n,1,1.9504310890042689,,,109,001,2019_Mar_15_1032,test_run,3.0.6,60.01956001173803,
133,ENW,ENW_43_axalän_150219.wav,n,t,,,,,0,21,21,132,,,,,,,,,,,,,,,n,1,7.0355121129978215,,,109,001,2019_Mar_15_1032,test_run,3.0.6,60.01956001173803,
149,ENW,ENW_59_kyrkmänning_150219.wav,n,t,,,,,0,22,22,148,,,,,,,,,,,,,,,n,1,6.8695527509989915,,,109,001,2019_Mar_15_1032,test_run,3.0.6,60.01956001173803,
150,ENW,ENW_60_lackpenar_150219.wav,n,t,,,,,0,23,23,149,,,,,,,,,,,,,,,n,1,5.836088443000335,,,109,001,2019_Mar_15_1032,test_run,3.0.6,60.01956001173803,
180,ENW,ENW_90_skrivinar_150219.wav,n,t,,,,,0,24,24,179,,,,,,,,,,,,,,,n,1,2.0197509480058216,,,109,001,2019_Mar_15_1032,test_run,3.0.6,60.01956001173803,
31,EFW,EFW_1_allmaan_070319.wav,j,t,,,,,0,25,25,30,,,,,,,,,,,,,,,j,1,0.45208890399953816,,,109,001,2019_Mar_15_1032,test_run,3.0.6,60.01956001173803,
82,EFW,EFW_52_framhoalla_070319.wav,j,t,,,,,0,26,26,81,,,,,,,,,,,,,,,j,1,0.3690494730108185,,,109,001,2019_Mar_15_1032,test_run,3.0.6,60.01956001173803,
96,ENW,ENW_6_vilfroaser_150219.wav,n,t,,,,,0,27,27,95,,,,,,,,,,,,,,,n,1,2.035770237998804,,,109,001,2019_Mar_15_1032,test_run,3.0.6,60.01956001173803,
167,ENW,ENW_77_somfera_150219.wav,n,t,,,,,0,28,28,166,,,,,,,,,,,,,,,n,1,1.9524014280032134,,,109,001,2019_Mar_15_1032,test_run,3.0.6,60.01956001173803,
114,ENW,ENW_24_samjoner_150219.wav,n,t,,,,,0,29,29,113,,,,,,,,,,,,,,,n,1,5.952367195000988,,,109,001,2019_Mar_15_1032,test_run,3.0.6,60.01956001173803,
73,EFW,EFW_43_halvoar_070319.wav,j,t,,,,,0,30,30,72,,,,,,,,,,,,,,,j,1,0.5361491030053003,,,109,001,2019_Mar_15_1032,test_run,3.0.6,60.01956001173803,
15,ETW,ETW_15_knivsudd_070319.wav,j,t,,,,,0,31,31,14,,,,,,,,,,,,,,,n,0,5.603497528005391,,,109,001,2019_Mar_15_1032,test_run,3.0.6,60.01956001173803,
121,ENW,ENW_31_romation_150219.wav,n,t,,,,,0,32,32,120,,,,,,,,,,,,,,,n,1,3.4187107689940603,,,109,001,2019_Mar_15_1032,test_run,3.0.6,60.01956001173803,
100,ENW,ENW_10_skinnamer_150219.wav,n,t,,,,,0,33,33,99,,,,,,,,,,,,,,,n,1,2.183790252005565,,,109,001,2019_Mar_15_1032,test_run,3.0.6,60.01956001173803,
8,ETW,ETW_8_samfund_070319.wav,j,t,,,,,0,34,34,7,,,,,,,,,,,,,,,j,1,0.3688251840067096,,,109,001,2019_Mar_15_1032,test_run,3.0.6,60.01956001173803,
156,ENW,ENW_66_voarsmenar_150219.wav,n,t,,,,,0,35,35,155,,,,,,,,,,,,,,,n,1,1.8671532430016669,,,109,001,2019_Mar_15_1032,test_run,3.0.6,60.01956001173803,
79,EFW,EFW_49_vaasen_070319.wav,j,t,,,,,0,36,36,78,,,,,,,,,,,,,,,j,1,0.4856403999874601,,,109,001,2019_Mar_15_1032,test_run,3.0.6,60.01956001173803,
158,ENW,ENW_68_presionar_150219.wav,n,t,,,,,0,37,37,157,,,,,,,,,,,,,,,n,1,2.452381682000123,,,109,001,2019_Mar_15_1032,test_run,3.0.6,60.01956001173803,
63,EFW,EFW_33_elva_070319.wav,j,t,,,,,0,38,38,62,,,,,,,,,,,,,,,j,1,0.48594527698878665,,,109,001,2019_Mar_15_1032,test_run,3.0.6,60.01956001173803,
176,ENW,ENW_86_heloppsin_150219.wav,n,t,,,,,0,39,39,175,,,,,,,,,,,,,,,n,1,6.469218755999464,,,109,001,2019_Mar_15_1032,test_run,3.0.6,60.01956001173803,
179,ENW,ENW_89_mikenspoan_150219.wav,n,t,,,,,0,40,40,178,,,,,,,,,,,,,,,n,1,1.4031174419942545,,,109,001,2019_Mar_15_1032,test_run,3.0.6,60.01956001173803,
23,ETW,ETW_23_promenad_070319.wav,j,t,,,,,0,41,41,22,,,,,,,,,,,,,,,j,1,0.2861583040066762,,,109,001,2019_Mar_15_1032,test_run,3.0.6,60.01956001173803,
80,EFW,EFW_50_snaalla_070319.wav,j,t,,,,,0,42,42,79,,,,,,,,,,,,,,,j,1,0.31903300699195825,,,109,001,2019_Mar_15_1032,test_run,3.0.6,60.01956001173803,
14,ETW,ETW_14_myriad_070319.wav,j,t,,,,,0,43,43,13,,,,,,,,,,,,,,,n,0,6.3856292749987915,,,109,001,2019_Mar_15_1032,test_run,3.0.6,60.01956001173803,
59,EFW,EFW_29_formen_070319.wav,j,t,,,,,0,44,44,58,,,,,,,,,,,,,,,j,1,0.2862585209950339,,,109,001,2019_Mar_15_1032,test_run,3.0.6,60.01956001173803,
86,EFW,EFW_56_mormor_070319.wav,j,t,,,,,0,45,45,85,,,,,,,,,,,,,,,j,1,0.502704682003241,,,109,001,2019_Mar_15_1032,test_run,3.0.6,60.01956001173803,
142,ENW,ENW_52_filofyll_150219.wav,n,t,,,,,0,46,46,141,,,,,,,,,,,,,,,n,1,0.5839282469969476,,,109,001,2019_Mar_15_1032,test_run,3.0.6,60.01956001173803,
30,ETW,ETW_30_oeverlevnad_070319.wav,j,t,,,,,0,47,47,29,,,,,,,,,,,,,,,j,1,1.8004075499920873,,,109,001,2019_Mar_15_1032,test_run,3.0.6,60.01956001173803,
143,ENW,ENW_53_svarmvisso_150219.wav,n,t,,,,,0,48,48,142,,,,,,,,,,,,,,,n,1,1.4862697899952764,,,109,001,2019_Mar_15_1032,test_run,3.0.6,60.01956001173803,
4,ETW,ETW_4_livraadd_070319.wav,j,t,,,,,0,49,49,3,,,,,,,,,,,,,,,j,1,0.5528895520110382,,,109,001,2019_Mar_15_1032,test_run,3.0.6,60.01956001173803,
169,ENW,ENW_79_lyxmare_150219.wav,n,t,,,,,0,50,50,168,,,,,,,,,,,,,,,n,1,0.5697663150058361,,,109,001,2019_Mar_15_1032,test_run,3.0.6,60.01956001173803,
91,ENW,ENW_1_norsimerar_150219.wav,n,t,,,,,0,51,51,90,,,,,,,,,,,,,,,n,1,0.5527652699965984,,,109,001,2019_Mar_15_1032,test_run,3.0.6,60.01956001173803,
33,EFW,EFW_3_familjen_070319.wav,j,t,,,,,0,52,52,32,,,,,,,,,,,,,,,j,1,0.269712008011993,,,109,001,2019_Mar_15_1032,test_run,3.0.6,60.01956001173803,
161,ENW,ENW_71_forskäckla_150219.wav,n,t,,,,,0,53,53,160,,,,,,,,,,,,,,,n,1,2.752700406999793,,,109,001,2019_Mar_15_1032,test_run,3.0.6,60.01956001173803,
18,ETW,ETW_18_husfasad_070319.wav,j,t,,,,,0,54,54,17,,,,,,,,,,,,,,,j,1,0.3194086350122234,,,109,001,2019_Mar_15_1032,test_run,3.0.6,60.01956001173803,
172,ENW,ENW_82_värskappa_150219.wav,n,t,,,,,0,55,55,171,,,,,,,,,,,,,,,n,1,1.45262776700838,,,109,001,2019_Mar_15_1032,test_run,3.0.6,60.01956001173803,
145,ENW,ENW_55_invaskin_150219.wav,n,t,,,,,0,56,56,144,,,,,,,,,,,,,,,n,1,2.352758191002067,,,109,001,2019_Mar_15_1032,test_run,3.0.6,60.01956001173803,
66,EFW,EFW_36_haarifroan_070319.wav,j,t,,,,,0,57,57,65,,,,,,,,,,,,,,,j,1,3.0021930579969194,,,109,001,2019_Mar_15_1032,test_run,3.0.6,60.01956001173803,
40,EFW,EFW_10_laarare_070319.wav,j,t,,,,,0,58,58,39,,,,,,,,,,,,,,,j,1,0.4520638409885578,,,109,001,2019_Mar_15_1032,test_run,3.0.6,60.01956001173803,
81,EFW,EFW_51_seminarier_070319.wav,j,t,,,,,0,59,59,80,,,,,,,,,,,,,,,j,1,0.3530149779981002,,,109,001,2019_Mar_15_1032,test_run,3.0.6,60.01956001173803,
17,ETW,ETW_17_hemmavid_070319.wav,j,t,,,,,0,60,60,16,,,,,,,,,,,,,,,j,1,0.3524440409964882,,,109,001,2019_Mar_15_1032,test_run,3.0.6,60.01956001173803,
108,ENW,ENW_18_moalursena_150219.wav,n,t,,,,,0,61,61,107,,,,,,,,,,,,,,,n,1,0.5190481839963468,,,109,001,2019_Mar_15_1032,test_run,3.0.6,60.01956001173803,
110,ENW,ENW_20_invonen_150219.wav,n,t,,,,,0,62,62,109,,,,,,,,,,,,,,,n,1,1.7530470979982056,,,109,001,2019_Mar_15_1032,test_run,3.0.6,60.01956001173803,
3,ETW,ETW_3_choklad_070319.wav,j,t,,,,,0,63,63,2,,,,,,,,,,,,,,,j,1,0.41714420801145025,,,109,001,2019_Mar_15_1032,test_run,3.0.6,60.01956001173803,
116,ENW,ENW_26_anufera_150219.wav,n,t,,,,,0,64,64,115,,,,,,,,,,,,,,,n,1,3.21917718599434,,,109,001,2019_Mar_15_1032,test_run,3.0.6,60.01956001173803,
42,EFW,EFW_12_foeremoal_070319.wav,j,t,,,,,0,65,65,41,,,,,,,,,,,,,,,j,1,0.3362396899901796,,,109,001,2019_Mar_15_1032,test_run,3.0.6,60.01956001173803,
56,EFW,EFW_26_armarna_070319.wav,j,t,,,,,0,66,66,55,,,,,,,,,,,,,,,j,1,0.38596659900213126,,,109,001,2019_Mar_15_1032,test_run,3.0.6,60.01956001173803,
126,ENW,ENW_36_skymlosa_150219.wav,n,t,,,,,0,67,67,125,,,,,,,,,,,,,,,n,1,4.119058825992397,,,109,001,2019_Mar_15_1032,test_run,3.0.6,60.01956001173803,
20,ETW,ETW_20_loppmarknad_070319.wav,j,t,,,,,0,68,68,19,,,,,,,,,,,,,,,j,1,0.2692458029923728,,,109,001,2019_Mar_15_1032,test_run,3.0.6,60.01956001173803,
53,EFW,EFW_23_aamne_070319.wav,j,t,,,,,0,69,69,52,,,,,,,,,,,,,,,j,1,2.0191053269954864,,,109,001,2019_Mar_15_1032,test_run,3.0.6,60.01956001173803,
102,ENW,ENW_12_snälmola_150219.wav,n,t,,,,,0,70,70,101,,,,,,,,,,,,,,,j,0,3.4855976620019646,,,109,001,2019_Mar_15_1032,test_run,3.0.6,60.01956001173803,
163,ENW,ENW_73_vimmankalla_150219.wav,n,t,,,,,0,71,71,162,,,,,,,,,,,,,,,n,1,1.1028173480008263,,,109,001,2019_Mar_15_1032,test_run,3.0.6,60.01956001173803,
119,ENW,ENW_29_uppskira_150219.wav,n,t,,,,,0,72,72,118,,,,,,,,,,,,,,,n,1,0.7192368109972449,,,109,001,2019_Mar_15_1032,test_run,3.0.6,60.01956001173803,
139,ENW,ENW_49_hälskrena_150219.wav,n,t,,,,,0,73,73,138,,,,,,,,,,,,,,,n,1,1.935419675995945,,,109,001,2019_Mar_15_1032,test_run,3.0.6,60.01956001173803,
140,ENW,ENW_50_omsänare_150219.wav,n,t,,,,,0,74,74,139,,,,,,,,,,,,,,,n,1,4.202341412004898,,,109,001,2019_Mar_15_1032,test_run,3.0.6,60.01956001173803,
117,ENW,ENW_27_lyssvinner_150219.wav,n,t,,,,,0,75,75,116,,,,,,,,,,,,,,,n,1,1.9187672280095285,,,109,001,2019_Mar_15_1032,test_run,3.0.6,60.01956001173803,
136,ENW,ENW_46_pommera_150219.wav,n,t,,,,,0,76,76,135,,,,,,,,,,,,,,,n,1,6.602027574001113,,,109,001,2019_Mar_15_1032,test_run,3.0.6,60.01956001173803,
101,ENW,ENW_11_fränna_150219.wav,n,t,,,,,0,77,77,100,,,,,,,,,,,,,,,n,1,1.7861253259907244,,,109,001,2019_Mar_15_1032,test_run,3.0.6,60.01956001173803,
99,ENW,ENW_9_samlemor_150219.wav,n,t,,,,,0,78,78,98,,,,,,,,,,,,,,,n,1,0.8172114510089159,,,109,001,2019_Mar_15_1032,test_run,3.0.6,60.01956001173803,
174,ENW,ENW_84_hurmarna_150219.wav,n,t,,,,,0,79,79,173,,,,,,,,,,,,,,,n,1,0.9692038810026133,,,109,001,2019_Mar_15_1032,test_run,3.0.6,60.01956001173803,
123,ENW,ENW_33_froamation_150219.wav,n,t,,,,,0,80,80,122,,,,,,,,,,,,,,,n,1,1.5191626979940338,,,109,001,2019_Mar_15_1032,test_run,3.0.6,60.01956001173803,
141,ENW,ENW_51_skillare_150219.wav,n,t,,,,,0,81,81,140,,,,,,,,,,,,,,,n,1,2.269271580997156,,,109,001,2019_Mar_15_1032,test_run,3.0.6,60.01956001173803,
95,ENW,ENW_5_spoamisk_150219.wav,n,t,,,,,0,82,82,94,,,,,,,,,,,,,,,n,1,0.9853991859999951,,,109,001,2019_Mar_15_1032,test_run,3.0.6,60.01956001173803,
46,EFW,EFW_16_lyssna_070319.wav,j,t,,,,,0,83,83,45,,,,,,,,,,,,,,,j,1,0.7860223540046718,,,109,001,2019_Mar_15_1032,test_run,3.0.6,60.01956001173803,
138,ENW,ENW_48_skyjamsen_150219.wav,n,t,,,,,0,84,84,137,,,,,,,,,,,,,,,n,1,1.9189286019973224,,,109,001,2019_Mar_15_1032,test_run,3.0.6,60.01956001173803,
35,EFW,EFW_5_samhaalle_070319.wav,j,t,,,,,0,85,85,34,,,,,,,,,,,,,,,j,1,0.33627152000553906,,,109,001,2019_Mar_15_1032,test_run,3.0.6,60.01956001173803,
48,EFW,EFW_18_nummer_070319.wav,j,t,,,,,0,86,86,47,,,,,,,,,,,,,,,j,1,0.31908960299915634,,,109,001,2019_Mar_15_1032,test_run,3.0.6,60.01956001173803,
165,ENW,ENW_75_foarskining_150219.wav,n,t,,,,,0,87,87,164,,,,,,,,,,,,,,,n,1,2.8188891770114424,,,109,001,2019_Mar_15_1032,test_run,3.0.6,60.01956001173803,
77,EFW,EFW_47_invoanare_070319.wav,j,t,,,,,0,88,88,76,,,,,,,,,,,,,,,j,1,1.6363368580059614,,,109,001,2019_Mar_15_1032,test_run,3.0.6,60.01956001173803,
70,EFW,EFW_40_miljoner_070319.wav,j,t,,,,,0,89,89,69,,,,,,,,,,,,,,,j,1,0.2696382989961421,,,109,001,2019_Mar_15_1032,test_run,3.0.6,60.01956001173803,
132,ENW,ENW_42_hamsforing_150219.wav,n,t,,,,,0,90,90,131,,,,,,,,,,,,,,,n,1,1.9189790539967362,,,109,001,2019_Mar_15_1032,test_run,3.0.6,60.01956001173803,
153,ENW,ENW_63_femyrisk_150219.wav,n,t,,,,,0,91,91,152,,,,,,,,,,,,,,,n,1,0.7027697559969965,,,109,001,2019_Mar_15_1032,test_run,3.0.6,60.01956001173803,
60,EFW,EFW_30_officiella_070319.wav,j,t,,,,,0,92,92,59,,,,,,,,,,,,,,,j,1,0.3028547479916597,,,109,001,2019_Mar_15_1032,test_run,3.0.6,60.01956001173803,
64,EFW,EFW_34_sommar_070319.wav,j,t,,,,,0,93,93,63,,,,,,,,,,,,,,,j,1,0.3853505670122104,,,109,001,2019_Mar_15_1032,test_run,3.0.6,60.01956001173803,
128,ENW,ENW_38_roakanier_150219.wav,n,t,,,,,0,94,94,127,,,,,,,,,,,,,,,n,1,1.0862861710047582,,,109,001,2019_Mar_15_1032,test_run,3.0.6,60.01956001173803,
6,ETW,ETW_6_vemod_070319.wav,j,t,,,,,0,95,95,5,,,,,,,,,,,,,,,j,1,0.3357335199980298,,,109,001,2019_Mar_15_1032,test_run,3.0.6,60.01956001173803,
50,EFW,EFW_20_fenomen_070319.wav,j,t,,,,,0,96,96,49,,,,,,,,,,,,,,,j,1,0.35277822299394757,,,109,001,2019_Mar_15_1032,test_run,3.0.6,60.01956001173803,
19,ETW,ETW_19_saallskapshund_070319.wav,j,t,,,,,0,97,97,18,,,,,,,,,,,,,,,j,1,0.5530563380016247,,,109,001,2019_Mar_15_1032,test_run,3.0.6,60.01956001173803,
71,EFW,EFW_41_infinna_070319.wav,j,t,,,,,0,98,98,70,,,,,,,,,,,,,,,j,1,1.2855945930059534,,,109,001,2019_Mar_15_1032,test_run,3.0.6,60.01956001173803,
49,EFW,EFW_19_roerelse_070319.wav,j,t,,,,,0,99,99,48,,,,,,,,,,,,,,,j,1,0.4359468710026704,,,109,001,2019_Mar_15_1032,test_run,3.0.6,60.01956001173803,
62,EFW,EFW_32_fyller_070319.wav,j,t,,,,,0,100,100,61,,,,,,,,,,,,,,,j,1,3.002365769003518,,,109,001,2019_Mar_15_1032,test_run,3.0.6,60.01956001173803,
113,ENW,ENW_23_allsänning_150219.wav,n,t,,,,,0,101,101,112,,,,,,,,,,,,,,,n,1,5.335702142998343,,,109,001,2019_Mar_15_1032,test_run,3.0.6,60.01956001173803,
151,ENW,ENW_61_myckskina_150219.wav,n,t,,,,,0,102,102,150,,,,,,,,,,,,,,,n,1,0.8360922360006953,,,109,001,2019_Mar_15_1032,test_run,3.0.6,60.01956001173803,
135,ENW,ENW_45_fammoarens_150219.wav,n,t,,,,,0,103,103,134,,,,,,,,,,,,,,,n,1,1.485926726993057,,,109,001,2019_Mar_15_1032,test_run,3.0.6,60.01956001173803,
61,EFW,EFW_31_jaamfoera_070319.wav,j,t,,,,,0,104,104,60,,,,,,,,,,,,,,,j,1,0.3002957150019938,,,109,001,2019_Mar_15_1032,test_run,3.0.6,60.01956001173803,
154,ENW,ENW_64_havskvare_150219.wav,n,t,,,,,0,105,105,153,,,,,,,,,,,,,,,n,1,1.7696595500019612,,,109,001,2019_Mar_15_1032,test_run,3.0.6,60.01956001173803,
109,ENW,ENW_19_morloren_150219.wav,n,t,,,,,0,106,106,108,,,,,,,,,,,,,,,n,1,1.119131400992046,,,109,001,2019_Mar_15_1032,test_run,3.0.6,60.01956001173803,
127,ENW,ENW_37_spallrivet_150219.wav,n,t,,,,,0,107,107,126,,,,,,,,,,,,,,,n,1,0.9693885989981936,,,109,001,2019_Mar_15_1032,test_run,3.0.6,60.01956001173803,
93,ENW,ENW_3_vissorens_150219.wav,n,t,,,,,0,108,108,92,,,,,,,,,,,,,,,n,1,0.869610339999781,,,109,001,2019_Mar_15_1032,test_run,3.0.6,60.01956001173803,
147,ENW,ENW_57_flovanning_150219.wav,n,t,,,,,0,109,109,146,,,,,,,,,,,,,,,n,1,0.5688274179992732,,,109,001,2019_Mar_15_1032,test_run,3.0.6,60.01956001173803,
22,ETW,ETW_22_sinnesfrid_070319.wav,j,t,,,,,0,110,110,21,,,,,,,,,,,,,,,j,1,0.2534909709938802,,,109,001,2019_Mar_15_1032,test_run,3.0.6,60.01956001173803,
52,EFW,EFW_22_normala_070319.wav,j,t,,,,,0,111,111,51,,,,,,,,,,,,,,,j,1,0.4025044390000403,,,109,001,2019_Mar_15_1032,test_run,3.0.6,60.01956001173803,
175,ENW,ENW_85_forlinna_150219.wav,n,t,,,,,0,112,112,174,,,,,,,,,,,,,,,n,1,1.002283512003487,,,109,001,2019_Mar_15_1032,test_run,3.0.6,60.01956001173803,
155,ENW,ENW_65_hamfylla_150219.wav,n,t,,,,,0,113,113,154,,,,,,,,,,,,,,,j,0,7.3029743999941275,,,109,001,2019_Mar_15_1032,test_run,3.0.6,60.01956001173803,
166,ENW,ENW_76_omfläskor_150219.wav,n,t,,,,,0,114,114,165,,,,,,,,,,,,,,,n,1,2.486087558005238,,,109,001,2019_Mar_15_1032,test_run,3.0.6,60.01956001173803,
157,ENW,ENW_67_oafreskar_150219.wav,n,t,,,,,0,115,115,156,,,,,,,,,,,,,,,n,1,0.4357819149881834,,,109,001,2019_Mar_15_1032,test_run,3.0.6,60.01956001173803,
10,ETW,ETW_10_nomad_070319.wav,j,t,,,,,0,116,116,9,,,,,,,,,,,,,,,j,1,0.6026185270020505,,,109,001,2019_Mar_15_1032,test_run,3.0.6,60.01956001173803,
178,ENW,ENW_88_marsifen_150219.wav,n,t,,,,,0,117,117,177,,,,,,,,,,,,,,,n,1,0.36901520600076765,,,109,001,2019_Mar_15_1032,test_run,3.0.6,60.01956001173803,
89,EFW,EFW_59_filosofin_070319.wav,j,t,,,,,0,118,118,88,,,,,,,,,,,,,,,j,1,0.2696848640043754,,,109,001,2019_Mar_15_1032,test_run,3.0.6,60.01956001173803,
68,EFW,EFW_38_foerefoell_070319.wav,j,t,,,,,0,119,119,67,,,,,,,,,,,,,,,j,1,0.2690854259999469,,,109,001,2019_Mar_15_1032,test_run,3.0.6,60.01956001173803,
9,ETW,ETW_9_haarmed_070319.wav,j,t,,,,,0,120,120,8,,,,,,,,,,,,,,,j,1,0.302908836005372,,,109,001,2019_Mar_15_1032,test_run,3.0.6,60.01956001173803,
177,ENW,ENW_87_kloavare_150219.wav,n,t,,,,,0,121,121,176,,,,,,,,,,,,,,,n,1,2.0862661190039944,,,109,001,2019_Mar_15_1032,test_run,3.0.6,60.01956001173803,
65,EFW,EFW_35_affaarer_070319.wav,j,t,,,,,0,122,122,64,,,,,,,,,,,,,,,j,1,0.3197124550060835,,,109,001,2019_Mar_15_1032,test_run,3.0.6,60.01956001173803,
11,ETW,ETW_11_period_070319.wav,j,t,,,,,0,123,123,10,,,,,,,,,,,,,,,j,1,0.6525006040028529,,,109,001,2019_Mar_15_1032,test_run,3.0.6,60.01956001173803,
2,ETW,ETW_2_skillnad_070319.wav,j,t,,,,,0,124,124,1,,,,,,,,,,,,,,,j,1,0.3023555789986858,,,109,001,2019_Mar_15_1032,test_run,3.0.6,60.01956001173803,
43,EFW,EFW_13_elever_070319.wav,j,t,,,,,0,125,125,42,,,,,,,,,,,,,,,j,1,0.6171502560027875,,,109,001,2019_Mar_15_1032,test_run,3.0.6,60.01956001173803,
51,EFW,EFW_21_varierar_070319.wav,j,t,,,,,0,126,126,50,,,,,,,,,,,,,,,j,1,0.30251814299845137,,,109,001,2019_Mar_15_1032,test_run,3.0.6,60.01956001173803,
32,EFW,EFW_2_snarare_070319.wav,j,t,,,,,0,127,127,31,,,,,,,,,,,,,,,j,1,0.3196843409969006,,,109,001,2019_Mar_15_1032,test_run,3.0.6,60.01956001173803,
69,EFW,EFW_39_foersvara_070319.wav,j,t,,,,,0,128,128,68,,,,,,,,,,,,,,,j,1,0.25249802599137183,,,109,001,2019_Mar_15_1032,test_run,3.0.6,60.01956001173803,
146,ENW,ENW_56_lysskarna_150219.wav,n,t,,,,,0,129,129,145,,,,,,,,,,,,,,,n,1,1.250487728000735,,,109,001,2019_Mar_15_1032,test_run,3.0.6,60.01956001173803,
160,ENW,ENW_70_roklarner_150219.wav,n,t,,,,,0,130,130,159,,,,,,,,,,,,,,,n,1,0.5860493010113714,,,109,001,2019_Mar_15_1032,test_run,3.0.6,60.01956001173803,
83,EFW,EFW_53_sovrum_070319.wav,j,t,,,,,0,131,131,82,,,,,,,,,,,,,,,j,1,0.2863948969898047,,,109,001,2019_Mar_15_1032,test_run,3.0.6,60.01956001173803,
47,EFW,EFW_17_januari_070319.wav,j,t,,,,,0,132,132,46,,,,,,,,,,,,,,,j,1,0.25222328399831895,,,109,001,2019_Mar_15_1032,test_run,3.0.6,60.01956001173803,
58,EFW,EFW_28_olja_070319.wav,j,t,,,,,0,133,133,57,,,,,,,,,,,,,,,j,1,0.352122544994927,,,109,001,2019_Mar_15_1032,test_run,3.0.6,60.01956001173803,
13,ETW,ETW_13_oevervoald_070319.wav,j,t,,,,,0,134,134,12,,,,,,,,,,,,,,,j,1,0.35064113899716176,,,109,001,2019_Mar_15_1032,test_run,3.0.6,60.01956001173803,
120,ENW,ENW_30_sojera_150219.wav,n,t,,,,,0,135,135,119,,,,,,,,,,,,,,,n,1,1.3355411800002912,,,109,001,2019_Mar_15_1032,test_run,3.0.6,60.01956001173803,
72,EFW,EFW_42_naavaron_070319.wav,j,t,,,,,0,136,136,71,,,,,,,,,,,,,,,j,1,1.0686845210002502,,,109,001,2019_Mar_15_1032,test_run,3.0.6,60.01956001173803,
134,ENW,ENW_44_inlivna_150219.wav,n,t,,,,,0,137,137,133,,,,,,,,,,,,,,,j,0,2.8524703169969143,,,109,001,2019_Mar_15_1032,test_run,3.0.6,60.01956001173803,
173,ENW,ENW_83_fyrskovar_150219.wav,n,t,,,,,0,138,138,172,,,,,,,,,,,,,,,n,1,3.1524382500065258,,,109,001,2019_Mar_15_1032,test_run,3.0.6,60.01956001173803,
115,ENW,ENW_25_affierar_150219.wav,n,t,,,,,0,139,139,114,,,,,,,,,,,,,,,n,1,5.585579352002242,,,109,001,2019_Mar_15_1032,test_run,3.0.6,60.01956001173803,
67,EFW,EFW_37_foervisso_070319.wav,j,t,,,,,0,140,140,66,,,,,,,,,,,,,,,j,1,0.30265391399734654,,,109,001,2019_Mar_15_1032,test_run,3.0.6,60.01956001173803,
78,EFW,EFW_48_varifroan_070319.wav,j,t,,,,,0,141,141,77,,,,,,,,,,,,,,,j,1,0.1531001229886897,,,109,001,2019_Mar_15_1032,test_run,3.0.6,60.01956001173803,
159,ENW,ENW_69_mjohusa_150219.wav,n,t,,,,,0,142,142,158,,,,,,,,,,,,,,,n,1,0.5690367630013498,,,109,001,2019_Mar_15_1032,test_run,3.0.6,60.01956001173803,
1,ETW,ETW_1_oskuld_070319.wav,j,t,,,,,0,143,143,0,,,,,,,,,,,,,,,j,1,0.6189773920050357,,,109,001,2019_Mar_15_1032,test_run,3.0.6,60.01956001173803,
98,ENW,ENW_8_haväras_150219.wav,n,t,,,,,0,144,144,97,,,,,,,,,,,,,,,n,1,0.9529274990054546,,,109,001,2019_Mar_15_1032,test_run,3.0.6,60.01956001173803,
162,ENW,ENW_72_urskecken_150219.wav,n,t,,,,,0,145,145,161,,,,,,,,,,,,,,,n,1,2.303020520004793,,,109,001,2019_Mar_15_1032,test_run,3.0.6,60.01956001173803,
74,EFW,EFW_44_ljusa_070319.wav,j,t,,,,,0,146,146,73,,,,,,,,,,,,,,,j,1,0.6024693400104297,,,109,001,2019_Mar_15_1032,test_run,3.0.6,60.01956001173803,
118,ENW,ENW_28_läkermask_150219.wav,n,t,,,,,0,147,147,117,,,,,,,,,,,,,,,j,0,0.3193241010012571,,,109,001,2019_Mar_15_1032,test_run,3.0.6,60.01956001173803,
44,EFW,EFW_14_foersoeken_070319.wav,j,t,,,,,0,148,148,43,,,,,,,,,,,,,,,j,1,0.3855795669951476,,,109,001,2019_Mar_15_1032,test_run,3.0.6,60.01956001173803,
152,ENW,ENW_62_ljullepilja_150219.wav,n,t,,,,,0,149,149,151,,,,,,,,,,,,,,,n,1,0.6695844420028152,,,109,001,2019_Mar_15_1032,test_run,3.0.6,60.01956001173803,
29,ETW,ETW_29_oeverhuvud_070319.wav,j,t,,,,,0,150,150,28,,,,,,,,,,,,,,,j,1,0.6856365529965842,,,109,001,2019_Mar_15_1032,test_run,3.0.6,60.01956001173803,
104,ENW,ENW_14_kärmenor_150219.wav,n,t,,,,,0,151,151,103,,,,,,,,,,,,,,,n,1,0.3362743540055817,,,109,001,2019_Mar_15_1032,test_run,3.0.6,60.01956001173803,
130,ENW,ENW_40_knipackar_150219.wav,n,t,,,,,0,152,152,129,,,,,,,,,,,,,,,n,1,2.518908484998974,,,109,001,2019_Mar_15_1032,test_run,3.0.6,60.01956001173803,
28,ETW,ETW_28_kommunalroad_070319.wav,j,t,,,,,0,153,153,27,,,,,,,,,,,,,,,j,1,0.31924393100780435,,,109,001,2019_Mar_15_1032,test_run,3.0.6,60.01956001173803,
16,ETW,ETW_16_episod_070319.wav,j,t,,,,,0,154,154,15,,,,,,,,,,,,,,,j,1,1.1530535320052877,,,109,001,2019_Mar_15_1032,test_run,3.0.6,60.01956001173803,
171,ENW,ENW_81_persifera_150219.wav,n,t,,,,,0,155,155,170,,,,,,,,,,,,,,,n,1,1.4358050270093372,,,109,001,2019_Mar_15_1032,test_run,3.0.6,60.01956001173803,
26,ETW,ETW_26_olympiad_070319.wav,j,t,,,,,0,156,156,25,,,,,,,,,,,,,,,j,1,0.2857121389970416,,,109,001,2019_Mar_15_1032,test_run,3.0.6,60.01956001173803,
76,EFW,EFW_46_foerhoer_070319.wav,j,t,,,,,0,157,157,75,,,,,,,,,,,,,,,j,1,0.2856125609978335,,,109,001,2019_Mar_15_1032,test_run,3.0.6,60.01956001173803,
38,EFW,EFW_8_samman_070319.wav,j,t,,,,,0,158,158,37,,,,,,,,,,,,,,,j,1,0.26992818400321994,,,109,001,2019_Mar_15_1032,test_run,3.0.6,60.01956001173803,
25,ETW,ETW_25_mikrosekund_070319.wav,j,t,,,,,0,159,159,24,,,,,,,,,,,,,,,j,1,0.3862235969863832,,,109,001,2019_Mar_15_1032,test_run,3.0.6,60.01956001173803,
75,EFW,EFW_45_innanfoer_070319.wav,j,t,,,,,0,160,160,74,,,,,,,,,,,,,,,j,1,1.76957848299935,,,109,001,2019_Mar_15_1032,test_run,3.0.6,60.01956001173803,
36,EFW,EFW_6_massa_070319.wav,j,t,,,,,0,161,161,35,,,,,,,,,,,,,,,j,1,0.3359474260068964,,,109,001,2019_Mar_15_1032,test_run,3.0.6,60.01956001173803,
55,EFW,EFW_25_informera_070319.wav,j,t,,,,,0,162,162,54,,,,,,,,,,,,,,,j,1,0.3359258879936533,,,109,001,2019_Mar_15_1032,test_run,3.0.6,60.01956001173803,
84,EFW,EFW_54_romaner_070319.wav,j,t,,,,,0,163,163,83,,,,,,,,,,,,,,,j,1,0.3005361710092984,,,109,001,2019_Mar_15_1032,test_run,3.0.6,60.01956001173803,
97,ENW,ENW_7_flasera_150219.wav,n,t,,,,,0,164,164,96,,,,,,,,,,,,,,,n,1,4.586164826003369,,,109,001,2019_Mar_15_1032,test_run,3.0.6,60.01956001173803,
85,EFW,EFW_55_oroar_070319.wav,j,t,,,,,0,165,165,84,,,,,,,,,,,,,,,j,1,1.302537907002261,,,109,001,2019_Mar_15_1032,test_run,3.0.6,60.01956001173803,
24,ETW,ETW_24_oeverfloed_070319.wav,j,t,,,,,0,166,166,23,,,,,,,,,,,,,,,j,1,0.26905434699438047,,,109,001,2019_Mar_15_1032,test_run,3.0.6,60.01956001173803,
168,ENW,ENW_78_morvinder_150219.wav,n,t,,,,,0,167,167,167,,,,,,,,,,,,,,,n,1,1.152944925997872,,,109,001,2019_Mar_15_1032,test_run,3.0.6,60.01956001173803,
27,ETW,ETW_27_medellivslaangd_070319.wav,j,t,,,,,0,168,168,26,,,,,,,,,,,,,,,j,1,0.3188935559883248,,,109,001,2019_Mar_15_1032,test_run,3.0.6,60.01956001173803,
170,ENW,ENW_80_tjarfera_150219.wav,n,t,,,,,0,169,169,169,,,,,,,,,,,,,,,n,1,0.18613598399679177,,,109,001,2019_Mar_15_1032,test_run,3.0.6,60.01956001173803,
131,ENW,ENW_41_vessmaren_150219.wav,n,t,,,,,0,170,170,130,,,,,,,,,,,,,,,n,1,0.33543540599930566,,,109,001,2019_Mar_15_1032,test_run,3.0.6,60.01956001173803,
21,ETW,ETW_21_marmelad_070319.wav,j,t,,,,,0,171,171,20,,,,,,,,,,,,,,,j,1,0.38644608900358435,,,109,001,2019_Mar_15_1032,test_run,3.0.6,60.01956001173803,
148,ENW,ENW_58_malvossa_150219.wav,n,t,,,,,0,172,172,147,,,,,,,,,,,,,,,n,1,0.38560891199449543,,,109,001,2019_Mar_15_1032,test_run,3.0.6,60.01956001173803,
12,ETW,ETW_12_offerlund_070319.wav,j,t,,,,,0,173,173,11,,,,,,,,,,,,,,,n,0,0.6860154299938586,,,109,001,2019_Mar_15_1032,test_run,3.0.6,60.01956001173803,
39,EFW,EFW_9_infektion_070319.wav,j,t,,,,,0,174,174,38,,,,,,,,,,,,,,,j,1,0.30306897399714217,,,109,001,2019_Mar_15_1032,test_run,3.0.6,60.01956001173803,
37,EFW,EFW_7_sociala_070319.wav,j,t,,,,,0,175,175,36,,,,,,,,,,,,,,,j,1,0.6354346050065942,,,109,001,2019_Mar_15_1032,test_run,3.0.6,60.01956001173803,
107,ENW,ENW_17_kopynnor_150219.wav,n,t,,,,,0,176,176,106,,,,,,,,,,,,,,,n,1,0.9198638039961224,,,109,001,2019_Mar_15_1032,test_run,3.0.6,60.01956001173803,
125,ENW,ENW_35_nymaljen_150219.wav,n,t,,,,,0,177,177,124,,,,,,,,,,,,,,,n,1,1.3189552820113022,,,109,001,2019_Mar_15_1032,test_run,3.0.6,60.01956001173803,
54,EFW,EFW_24_foersvinner_070319.wav,j,t,,,,,0,178,178,53,,,,,,,,,,,,,,,j,1,0.48608189800870605,,,109,001,2019_Mar_15_1032,test_run,3.0.6,60.01956001173803,
5,ETW,ETW_5_skepnad_070319.wav,j,t,,,,,0,179,179,4,,,,,,,,,,,,,,,j,1,0.2354067389969714,,,109,001,2019_Mar_15_1032,test_run,3.0.6,60.01956001173803,
22,TDF,TDF_22_hed_070319.wav,,,1,rating_t_final.csv,t,final,,,,,0,0,0,0,0,0,0,1,0,0,0,21,,,,,,3,24.52,109,001,2019_Mar_15_1032,test_run,3.0.6,60.01956001173803,
28,TDF,TDF_28_brand_070319.wav,,,1,rating_t_final.csv,t,final,,,,,0,0,0,0,0,0,0,1,0,1,1,27,,,,,,4,6.203,109,001,2019_Mar_15_1032,test_run,3.0.6,60.01956001173803,
31,TDF,TDF_31_brodd_070319.wav,,,1,rating_t_final.csv,t,final,,,,,0,0,0,0,0,0,0,1,0,2,2,30,,,,,,5,2.903,109,001,2019_Mar_15_1032,test_run,3.0.6,60.01956001173803,
32,TDF,TDF_32_hoard_070319.wav,,,1,rating_t_final.csv,t,final,,,,,0,0,0,0,0,0,0,1,0,3,3,31,,,,,,6,8.754,109,001,2019_Mar_15_1032,test_run,3.0.6,60.01956001173803,
21,TDF,TDF_21_ljod _070319.wav,,,1,rating_t_final.csv,t,final,,,,,0,0,0,0,0,0,0,1,0,4,4,20,,,,,,4,10.137,109,001,2019_Mar_15_1032,test_run,3.0.6,60.01956001173803,
30,TDF,TDF_30_sladd_070319.wav,,,1,rating_t_final.csv,t,final,,,,,0,0,0,0,0,0,0,1,0,5,5,29,,,,,,5,20.037,109,001,2019_Mar_15_1032,test_run,3.0.6,60.01956001173803,
13,TTF,TTF_13_gjut_070319.wav,,,1,rating_t_final.csv,t,final,,,,,0,0,0,0,0,0,0,1,0,6,6,12,,,,,,7,4.054,109,001,2019_Mar_15_1032,test_run,3.0.6,60.01956001173803,
7,TTF,TTF_7_vit_070319.wav,,,1,rating_t_final.csv,t,final,,,,,0,0,0,0,0,0,0,1,0,7,7,6,,,,,,7,2.105,109,001,2019_Mar_15_1032,test_run,3.0.6,60.01956001173803,
17,TDF,TDF_17_sked_070319.wav,,,1,rating_t_final.csv,t,final,,,,,0,0,0,0,0,0,0,1,0,8,8,16,,,,,,3,15.954,109,001,2019_Mar_15_1032,test_run,3.0.6,60.01956001173803,
15,TTF,TTF_15_not_070319.wav,,,1,rating_t_final.csv,t,final,,,,,0,0,0,0,0,0,0,1,0,9,9,14,,,,,,7,1.871,109,001,2019_Mar_15_1032,test_run,3.0.6,60.01956001173803,
26,TDF,TDF_26_rymd_070319.wav,,,1,rating_t_final.csv,t,final,,,,,0,0,0,0,0,0,0,1,0,10,10,25,,,,,,2,13.57,109,001,2019_Mar_15_1032,test_run,3.0.6,60.01956001173803,
8,TTF,TTF_8_noet_070319.wav,,,1,rating_t_final.csv,t,final,,,,,0,0,0,0,0,0,0,1,0,11,11,7,,,,,,7,3.254,109,001,2019_Mar_15_1032,test_run,3.0.6,60.01956001173803,
2,TTF,TTF_2_vet_070319.wav,,,1,rating_t_final.csv,t,final,,,,,0,0,0,0,0,0,0,1,0,12,12,1,,,,,,6,6.02,109,001,2019_Mar_15_1032,test_run,3.0.6,60.01956001173803,
14,TTF,TTF_14_mot_070319.wav,,,1,rating_t_final.csv,t,final,,,,,0,0,0,0,0,0,0,1,0,13,13,13,,,,,,7,0.954,109,001,2019_Mar_15_1032,test_run,3.0.6,60.01956001173803,
6,TTF,TTF_6_voart_070319.wav,,,1,rating_t_final.csv,t,final,,,,,0,0,0,0,0,0,0,1,0,14,14,5,,,,,,6,5.187,109,001,2019_Mar_15_1032,test_run,3.0.6,60.01956001173803,
24,TDF,TDF_24_smid_070319.wav,,,1,rating_t_final.csv,t,final,,,,,0,0,0,0,0,0,0,1,0,15,15,23,,,,,,2,10.404,109,001,2019_Mar_15_1032,test_run,3.0.6,60.01956001173803,
20,TDF,TDF_20_god_070319.wav,,,1,rating_t_final.csv,t,final,,,,,0,0,0,0,0,0,0,1,0,16,16,19,,,,,,3,14.137,109,001,2019_Mar_15_1032,test_run,3.0.6,60.01956001173803,
18,TDF,TDF_18_sjud_070319.wav,,,1,rating_t_final.csv,t,final,,,,,0,0,0,0,0,0,0,1,0,17,17,17,,,,,,5,4.138,109,001,2019_Mar_15_1032,test_run,3.0.6,60.01956001173803,
5,TTF,TTF_5_voat_070319.wav,,,1,rating_t_final.csv,t,final,,,,,0,0,0,0,0,0,0,1,0,18,18,4,,,,,,6,3.887,109,001,2019_Mar_15_1032,test_run,3.0.6,60.01956001173803,
29,TDF,TDF_29_baadd_070319.wav,,,1,rating_t_final.csv,t,final,,,,,0,0,0,0,0,0,0,1,0,19,19,28,,,,,,5,4.404,109,001,2019_Mar_15_1032,test_run,3.0.6,60.01956001173803,
9,TTF,TTF_9_bot_070319.wav,,,1,rating_t_final.csv,t,final,,,,,0,0,0,0,0,0,0,1,0,20,20,8,,,,,,7,2.221,109,001,2019_Mar_15_1032,test_run,3.0.6,60.01956001173803,
16,TTF,TTF_16_font_070319.wav,,,1,rating_t_final.csv,t,final,,,,,0,0,0,0,0,0,0,1,0,21,21,15,,,,,,7,0.955,109,001,2019_Mar_15_1032,test_run,3.0.6,60.01956001173803,
4,TTF,TTF_4_roet_070319.wav,,,1,rating_t_final.csv,t,final,,,,,0,0,0,0,0,0,0,1,0,22,22,3,,,,,,7,2.887,109,001,2019_Mar_15_1032,test_run,3.0.6,60.01956001173803,
3,TTF,TTF_3_raat_070319.wav,,,1,rating_t_final.csv,t,final,,,,,0,0,0,0,0,0,0,1,0,23,23,2,,,,,,7,1.137,109,001,2019_Mar_15_1032,test_run,3.0.6,60.01956001173803,
27,TDF,TDF_27_sand_070319.wav,,,1,rating_t_final.csv,t,final,,,,,0,0,0,0,0,0,0,1,0,24,24,26,,,,,,5,7.02,109,001,2019_Mar_15_1032,test_run,3.0.6,60.01956001173803,
25,TDF,TDF_25_synd_070319.wav,,,1,rating_t_final.csv,t,final,,,,,0,0,0,0,0,0,0,1,0,25,25,24,,,,,,2,7.77,109,001,2019_Mar_15_1032,test_run,3.0.6,60.01956001173803,
1,TTF,TTF_1_rit_070319.wav,,,1,rating_t_final.csv,t,final,,,,,0,0,0,0,0,0,0,1,0,26,26,0,,,,,,7,2.087,109,001,2019_Mar_15_1032,test_run,3.0.6,60.01956001173803,
10,TTF,TTF_10_broet_070319.wav,,,1,rating_t_final.csv,t,final,,,,,0,0,0,0,0,0,0,1,0,27,27,9,,,,,,4,8.421,109,001,2019_Mar_15_1032,test_run,3.0.6,60.01956001173803,
12,TTF,TTF_12_smet_070319.wav,,,1,rating_t_final.csv,t,final,,,,,0,0,0,0,0,0,0,1,0,28,28,11,,,,,,6,6.087,109,001,2019_Mar_15_1032,test_run,3.0.6,60.01956001173803,
23,TDF,TDF_23_hud_070319.wav,,,1,rating_t_final.csv,t,final,,,,,0,0,0,0,0,0,0,1,0,29,29,22,,,,,,2,6.754,109,001,2019_Mar_15_1032,test_run,3.0.6,60.01956001173803,
19,TDF,TDF_19_sjod_070319.wav,,,1,rating_t_final.csv,t,final,,,,,0,0,0,0,0,0,0,1,0,30,30,18,,,,,,6,6.353,109,001,2019_Mar_15_1032,test_run,3.0.6,60.01956001173803,
11,TTF,TTF_11_svit_070319.wav,,,1,rating_t_final.csv,t,final,,,,,0,0,0,0,0,0,0,1,0,31,31,10,,,,,,7,0.835,109,001,2019_Mar_15_1032,test_run,3.0.6,60.01956001173803,
19,TTF,TTF_19_skoet_070319.wav,,,1,rating_d_final.csv,d,final,,,,,0,0,0,0,0,1,1,0,0,0,0,18,,,,,,1,4.221,109,001,2019_Mar_15_1032,test_run,3.0.6,60.01956001173803,
3,TDF,TDF_3_raad_070319.wav,,,1,rating_d_final.csv,d,final,,,,,0,0,0,0,0,1,1,0,0,1,1,2,,,,,,5,9.788,109,001,2019_Mar_15_1032,test_run,3.0.6,60.01956001173803,
30,TTF,TTF_30_slatt_070319.wav,,,1,rating_d_final.csv,d,final,,,,,0,0,0,0,0,1,1,0,0,2,2,29,,,,,,1,1.504,109,001,2019_Mar_15_1032,test_run,3.0.6,60.01956001173803,
18,TTF,TTF_18_skjut_070319.wav,,,1,rating_d_final.csv,d,final,,,,,0,0,0,0,0,1,1,0,0,3,3,17,,,,,,1,3.17,109,001,2019_Mar_15_1032,test_run,3.0.6,60.01956001173803,
4,TDF,TDF_4_rod_070319.wav,,,1,rating_d_final.csv,d,final,,,,,0,0,0,0,0,1,1,0,0,4,4,3,,,,,,7,2.204,109,001,2019_Mar_15_1032,test_run,3.0.6,60.01956001173803,
15,TDF,TDF_15_nod_070319.wav,,,1,rating_d_final.csv,d,final,,,,,0,0,0,0,0,1,1,0,0,5,5,14,,,,,,7,1.637,109,001,2019_Mar_15_1032,test_run,3.0.6,60.01956001173803,
10,TDF,TDF_10_brod_070319.wav,,,1,rating_d_final.csv,d,final,,,,,0,0,0,0,0,1,1,0,0,6,6,9,,,,,,3,8.153,109,001,2019_Mar_15_1032,test_run,3.0.6,60.01956001173803,
9,TDF,TDF_9_bod_070319.wav,,,1,rating_d_final.csv,d,final,,,,,0,0,0,0,0,1,1,0,0,7,7,8,,,,,,2,5.805,109,001,2019_Mar_15_1032,test_run,3.0.6,60.01956001173803,
6,TDF,TDF_6_voard_070319.wav,,,1,rating_d_final.csv,d,final,,,,,0,0,0,0,0,1,1,0,0,8,8,5,,,,,,6,4.521,109,001,2019_Mar_15_1032,test_run,3.0.6,60.01956001173803,
28,TTF,TTF_28_brant_070319.wav,,,1,rating_d_final.csv,d,final,,,,,0,0,0,0,0,1,1,0,0,9,9,27,,,,,,1,4.204,109,001,2019_Mar_15_1032,test_run,3.0.6,60.01956001173803,
27,TTF,TTF_27_sant_070319.wav,,,1,rating_d_final.csv,d,final,,,,,0,0,0,0,0,1,1,0,0,10,10,26,,,,,,1,1.603,109,001,2019_Mar_15_1032,test_run,3.0.6,60.01956001173803,
24,TTF,TTF_24_smit_070319.wav,,,1,rating_d_final.csv,d,final,,,,,0,0,0,0,0,1,1,0,0,11,11,23,,,,,,1,3.387,109,001,2019_Mar_15_1032,test_run,3.0.6,60.01956001173803,
8,TDF,TDF_8_nod_070319.wav,,,1,rating_d_final.csv,d,final,,,,,0,0,0,0,0,1,1,0,0,12,12,7,,,,,,6,5.954,109,001,2019_Mar_15_1032,test_run,3.0.6,60.01956001173803,
32,TTF,TTF_32_hoart_070319.wav,,,1,rating_d_final.csv,d,final,,,,,0,0,0,0,0,1,1,0,0,13,13,31,,,,,,1,4.07,109,001,2019_Mar_15_1032,test_run,3.0.6,60.01956001173803,
29,TTF,TTF_29_bett_070319.wav,,,1,rating_d_final.csv,d,final,,,,,0,0,0,0,0,1,1,0,0,14,14,28,,,,,,1,5.671,109,001,2019_Mar_15_1032,test_run,3.0.6,60.01956001173803,
14,TDF,TDF_14_mod_070319.wav,,,1,rating_d_final.csv,d,final,,,,,0,0,0,0,0,1,1,0,0,15,15,13,,,,,,6,10.17,109,001,2019_Mar_15_1032,test_run,3.0.6,60.01956001173803,
11,TDF,TDF_11_svid_070319.wav,,,1,rating_d_final.csv,d,final,,,,,0,0,0,0,0,1,1,0,0,16,16,10,,,,,,4,5.004,109,001,2019_Mar_15_1032,test_run,3.0.6,60.01956001173803,
17,TTF,TTF_17_sket_070319.wav,,,1,rating_d_final.csv,d,final,,,,,0,0,0,0,0,1,1,0,0,17,17,16,,,,,,1,5.037,109,001,2019_Mar_15_1032,test_run,3.0.6,60.01956001173803,
12,TDF,TDF_12_smed_070319.wav,,,1,rating_d_final.csv,d,final,,,,,0,0,0,0,0,1,1,0,0,18,18,11,,,,,,7,1.187,109,001,2019_Mar_15_1032,test_run,3.0.6,60.01956001173803,
1,TDF,TDF_1_rid_070319.wav,,,1,rating_d_final.csv,d,final,,,,,0,0,0,0,0,1,1,0,0,19,19,0,,,,,,3,2.937,109,001,2019_Mar_15_1032,test_run,3.0.6,60.01956001173803,
22,TTF,TTF_22_het_070319.wav,,,1,rating_d_final.csv,d,final,,,,,0,0,0,0,0,1,1,0,0,20,20,21,,,,,,1,2.485,109,001,2019_Mar_15_1032,test_run,3.0.6,60.01956001173803,
23,TTF,TTF_23_hut_070319.wav,,,1,rating_d_final.csv,d,final,,,,,0,0,0,0,0,1,1,0,0,21,21,22,,,,,,1,7.454,109,001,2019_Mar_15_1032,test_run,3.0.6,60.01956001173803,
31,TTF,TTF_31_brott_070319.wav,,,1,rating_d_final.csv,d,final,,,,,0,0,0,0,0,1,1,0,0,22,22,30,,,,,,1,4.587,109,001,2019_Mar_15_1032,test_run,3.0.6,60.01956001173803,
26,TTF,TTF_26_rymt_070319.wav,,,1,rating_d_final.csv,d,final,,,,,0,0,0,0,0,1,1,0,0,23,23,25,,,,,,1,5.987,109,001,2019_Mar_15_1032,test_run,3.0.6,60.01956001173803,
16,TDF,TDF_16_fond_070319.wav,,,1,rating_d_final.csv,d,final,,,,,0,0,0,0,0,1,1,0,0,24,24,15,,,,,,6,3.004,109,001,2019_Mar_15_1032,test_run,3.0.6,60.01956001173803,
20,TTF,TTF_20_got_070319.wav,,,1,rating_d_final.csv,d,final,,,,,0,0,0,0,0,1,1,0,0,25,25,19,,,,,,1,4.338,109,001,2019_Mar_15_1032,test_run,3.0.6,60.01956001173803,
2,TDF,TDF_2_ved_070319.wav,,,1,rating_d_final.csv,d,final,,,,,0,0,0,0,0,1,1,0,0,26,26,1,,,,,,6,3.354,109,001,2019_Mar_15_1032,test_run,3.0.6,60.01956001173803,
5,TDF,TDF_5_voad_070319.wav,,,1,rating_d_final.csv,d,final,,,,,0,0,0,0,0,1,1,0,0,27,27,4,,,,,,5,4.187,109,001,2019_Mar_15_1032,test_run,3.0.6,60.01956001173803,
21,TTF,TTF_21_gjoet_070319.wav,,,1,rating_d_final.csv,d,final,,,,,0,0,0,0,0,1,1,0,0,28,28,20,,,,,,1,3.087,109,001,2019_Mar_15_1032,test_run,3.0.6,60.01956001173803,
7,TDF,TDF_7_vid_070319.wav,,,1,rating_d_final.csv,d,final,,,,,0,0,0,0,0,1,1,0,0,29,29,6,,,,,,3,5.404,109,001,2019_Mar_15_1032,test_run,3.0.6,60.01956001173803,
25,TTF,TTF_25_synt_070319.wav,,,1,rating_d_final.csv,d,final,,,,,0,0,0,0,0,1,1,0,0,30,30,24,,,,,,1,0.853,109,001,2019_Mar_15_1032,test_run,3.0.6,60.01956001173803,
13,TDF,TDF_13_ljud_070319.wav,,,1,rating_d_final.csv,d,final,,,,,0,0,0,0,0,1,1,0,0,31,31,12,,,,,,4,4.854,109,001,2019_Mar_15_1032,test_run,3.0.6,60.01956001173803,
17,TTI,TTI_17_topp_150219.wav,,,2,rating_d_initial.csv,d,initial,,,,,0,1,1,1,0,0,0,0,0,0,0,16,,,,,,2,5.021,109,001,2019_Mar_15_1032,test_run,3.0.6,60.01956001173803,
4,TDI,TDI_4_dam_150219.wav,,,2,rating_d_initial.csv,d,initial,,,,,0,1,1,1,0,0,0,0,0,1,1,3,,,,,,7,0.754,109,001,2019_Mar_15_1032,test_run,3.0.6,60.01956001173803,
23,TTI,TTI_23_toa_150219.wav,,,2,rating_d_initial.csv,d,initial,,,,,0,1,1,1,0,0,0,0,0,2,2,22,,,,,,3,6.536,109,001,2019_Mar_15_1032,test_run,3.0.6,60.01956001173803,
18,TTI,TTI_18_tum_150219.wav,,,2,rating_d_initial.csv,d,initial,,,,,0,1,1,1,0,0,0,0,0,3,3,17,,,,,,2,2.737,109,001,2019_Mar_15_1032,test_run,3.0.6,60.01956001173803,
5,TDI,TDI_5_dass_150219.wav,,,2,rating_d_initial.csv,d,initial,,,,,0,1,1,1,0,0,0,0,0,4,4,4,,,,,,7,1.504,109,001,2019_Mar_15_1032,test_run,3.0.6,60.01956001173803,
3,TDI,TDI_3_dal_150219.wav,,,2,rating_d_initial.csv,d,initial,,,,,0,1,1,1,0,0,0,0,0,5,5,2,,,,,,7,0.57,109,001,2019_Mar_15_1032,test_run,3.0.6,60.01956001173803,
16,TTI,TTI_16_ton_150219.wav,,,2,rating_d_initial.csv,d,initial,,,,,0,1,1,1,0,0,0,0,0,6,6,15,,,,,,1,3.203,109,001,2019_Mar_15_1032,test_run,3.0.6,60.01956001173803,
21,TTI,TTI_21_tugg_150219.wav,,,2,rating_d_initial.csv,d,initial,,,,,0,1,1,1,0,0,0,0,0,7,7,20,,,,,,2,3.52,109,001,2019_Mar_15_1032,test_run,3.0.6,60.01956001173803,
8,TDI,TDI_8_dia_150219.wav,,,2,rating_d_initial.csv,d,initial,,,,,0,1,1,1,0,0,0,0,0,8,8,7,,,,,,6,7.887,109,001,2019_Mar_15_1032,test_run,3.0.6,60.01956001173803,
22,TTI,TTI_22_ty_150219.wav,,,2,rating_d_initial.csv,d,initial,,,,,0,1,1,1,0,0,0,0,0,9,9,21,,,,,,6,2.554,109,001,2019_Mar_15_1032,test_run,3.0.6,60.01956001173803,
25,TTI,TTI_25_taar_150219.wav,,,2,rating_d_initial.csv,d,initial,,,,,0,1,1,1,0,0,0,0,0,10,10,24,,,,,,7,0.586,109,001,2019_Mar_15_1032,test_run,3.0.6,60.01956001173803,
9,TDI,TDI_9_dill_150219.wav,,,2,rating_d_initial.csv,d,initial,,,,,0,1,1,1,0,0,0,0,0,11,11,8,,,,,,7,0.62,109,001,2019_Mar_15_1032,test_run,3.0.6,60.01956001173803,
12,TDI,TDI_12_doa_150219.wav,,,2,rating_d_initial.csv,d,initial,,,,,0,1,1,1,0,0,0,0,0,12,12,11,,,,,,7,4.87,109,001,2019_Mar_15_1032,test_run,3.0.6,60.01956001173803,
2,TDI,TDI_2_dagg_150219.wav,,,2,rating_d_initial.csv,d,initial,,,,,0,1,1,1,0,0,0,0,0,13,13,1,,,,,,7,2.504,109,001,2019_Mar_15_1032,test_run,3.0.6,60.01956001173803,
13,TDI,TDI_13_dog_150219.wav,,,2,rating_d_initial.csv,d,initial,,,,,0,1,1,1,0,0,0,0,0,14,14,12,,,,,,7,2.704,109,001,2019_Mar_15_1032,test_run,3.0.6,60.01956001173803,
11,TDI,TDI_11_dipp_150219.wav,,,2,rating_d_initial.csv,d,initial,,,,,0,1,1,1,0,0,0,0,0,15,15,10,,,,,,7,1.386,109,001,2019_Mar_15_1032,test_run,3.0.6,60.01956001173803,
10,TDI,TDI_10_ditt_150219.wav,,,2,rating_d_initial.csv,d,initial,,,,,0,1,1,1,0,0,0,0,0,16,16,9,,,,,,7,0.92,109,001,2019_Mar_15_1032,test_run,3.0.6,60.01956001173803,
7,TDI,TDI_7_den_150219.wav,,,2,rating_d_initial.csv,d,initial,,,,,0,1,1,1,0,0,0,0,0,17,17,6,,,,,,7,0.654,109,001,2019_Mar_15_1032,test_run,3.0.6,60.01956001173803,
6,TDI,TDI_6_deg_150219.wav,,,2,rating_d_initial.csv,d,initial,,,,,0,1,1,1,0,0,0,0,0,18,18,5,,,,,,7,1.403,109,001,2019_Mar_15_1032,test_run,3.0.6,60.01956001173803,
15,TTI,TTI_15_tom_150219.wav,,,2,rating_d_initial.csv,d,initial,,,,,0,1,1,1,0,0,0,0,0,19,19,14,,,,,,1,1.47,109,001,2019_Mar_15_1032,test_run,3.0.6,60.01956001173803,
14,TDI,TDI_14_dok_150219.wav,,,2,rating_d_initial.csv,d,initial,,,,,0,1,1,1,0,0,0,0,0,20,20,13,,,,,,3,3.253,109,001,2019_Mar_15_1032,test_run,3.0.6,60.01956001173803,
26,TTI,TTI_26_toe_150219.wav,,,2,rating_d_initial.csv,d,initial,,,,,0,1,1,1,0,0,0,0,0,21,21,25,,,,,,3,3.738,109,001,2019_Mar_15_1032,test_run,3.0.6,60.01956001173803,
27,TTI,TTI_27_toem_150219.wav,,,2,rating_d_initial.csv,d,initial,,,,,0,1,1,1,0,0,0,0,0,22,22,26,,,,,,1,0.755,109,001,2019_Mar_15_1032,test_run,3.0.6,60.01956001173803,
24,TTI,TTI_24_taack_150219.wav,,,2,rating_d_initial.csv,d,initial,,,,,0,1,1,1,0,0,0,0,0,23,23,23,,,,,,2,5.671,109,001,2019_Mar_15_1032,test_run,3.0.6,60.01956001173803,
1,TDI,TDI_1_dag_150219.wav,,,2,rating_d_initial.csv,d,initial,,,,,0,1,1,1,0,0,0,0,0,24,24,0,,,,,,6,5.037,109,001,2019_Mar_15_1032,test_run,3.0.6,60.01956001173803,
19,TTI,TTI_19_tun_150219.wav,,,2,rating_d_initial.csv,d,initial,,,,,0,1,1,1,0,0,0,0,0,25,25,18,,,,,,7,1.721,109,001,2019_Mar_15_1032,test_run,3.0.6,60.01956001173803,
20,TTI,TTI_20_tur_150219.wav,,,2,rating_d_initial.csv,d,initial,,,,,0,1,1,1,0,0,0,0,0,26,26,19,,,,,,1,1.237,109,001,2019_Mar_15_1032,test_run,3.0.6,60.01956001173803,
4,TTI,TTI_4_tam_150219.wav,,,2,rating_t_initial.csv,t,initial,,,,,0,1,1,1,0,1,1,1,0,0,0,3,,,,,,6,8.753,109,001,2019_Mar_15_1032,test_run,3.0.6,60.01956001173803,
2,TTI,TTI_2_tagg_150219.wav,,,2,rating_t_initial.csv,t,initial,,,,,0,1,1,1,0,1,1,1,0,1,1,1,,,,,,3,5.588,109,001,2019_Mar_15_1032,test_run,3.0.6,60.01956001173803,
5,TTI,TTI_5_tass_150219.wav,,,2,rating_t_initial.csv,t,initial,,,,,0,1,1,1,0,1,1,1,0,2,2,4,,,,,,1,2.688,109,001,2019_Mar_15_1032,test_run,3.0.6,60.01956001173803,
13,TTI,TTI_13_tog_150219.wav,,,2,rating_t_initial.csv,t,initial,,,,,0,1,1,1,0,1,1,1,0,3,3,12,,,,,,6,1.153,109,001,2019_Mar_15_1032,test_run,3.0.6,60.01956001173803,
25,TDI,TDI_25_daar_150219.wav,,,2,rating_t_initial.csv,t,initial,,,,,0,1,1,1,0,1,1,1,0,4,4,24,,,,,,1,0.485,109,001,2019_Mar_15_1032,test_run,3.0.6,60.01956001173803,
3,TTI,TTI_3_tal_150219.wav,,,2,rating_t_initial.csv,t,initial,,,,,0,1,1,1,0,1,1,1,0,5,5,2,,,,,,7,3.855,109,001,2019_Mar_15_1032,test_run,3.0.6,60.01956001173803,
1,TTI,TTI_1_tag_150219.wav,,,2,rating_t_initial.csv,t,initial,,,,,0,1,1,1,0,1,1,1,0,6,6,0,,,,,,7,1.37,109,001,2019_Mar_15_1032,test_run,3.0.6,60.01956001173803,
17,TDI,TDI_17_dopp_150219.wav,,,2,rating_t_initial.csv,t,initial,,,,,0,1,1,1,0,1,1,1,0,7,7,16,,,,,,1,1.57,109,001,2019_Mar_15_1032,test_run,3.0.6,60.01956001173803,
18,TDI,TDI_18_dum_150219.wav,,,2,rating_t_initial.csv,t,initial,,,,,0,1,1,1,0,1,1,1,0,8,8,17,,,,,,1,0.553,109,001,2019_Mar_15_1032,test_run,3.0.6,60.01956001173803,
16,TDI,TDI_16_don_150219.wav,,,2,rating_t_initial.csv,t,initial,,,,,0,1,1,1,0,1,1,1,0,9,9,15,,,,,,1,0.571,109,001,2019_Mar_15_1032,test_run,3.0.6,60.01956001173803,
21,TDI,TDI_21_dugg_150219.wav,,,2,rating_t_initial.csv,t,initial,,,,,0,1,1,1,0,1,1,1,0,10,10,20,,,,,,1,0.521,109,001,2019_Mar_15_1032,test_run,3.0.6,60.01956001173803,
14,TTI,TTI_14_tok_150219.wav,,,2,rating_t_initial.csv,t,initial,,,,,0,1,1,1,0,1,1,1,0,11,11,13,,,,,,7,0.554,109,001,2019_Mar_15_1032,test_run,3.0.6,60.01956001173803,
19,TDI,TDI_19_dun_150219.wav,,,2,rating_t_initial.csv,t,initial,,,,,0,1,1,1,0,1,1,1,0,12,12,18,,,,,,1,1.903,109,001,2019_Mar_15_1032,test_run,3.0.6,60.01956001173803,
10,TTI,TTI_10_titt_150219.wav,,,2,rating_t_initial.csv,t,initial,,,,,0,1,1,1,0,1,1,1,0,13,13,9,,,,,,1,1.771,109,001,2019_Mar_15_1032,test_run,3.0.6,60.01956001173803,
24,TDI,TDI_24_daack_150219.wav,,,2,rating_t_initial.csv,t,initial,,,,,0,1,1,1,0,1,1,1,0,14,14,23,,,,,,1,1.32,109,001,2019_Mar_15_1032,test_run,3.0.6,60.01956001173803,
22,TDI,TDI_22_dy_150219.wav,,,2,rating_t_initial.csv,t,initial,,,,,0,1,1,1,0,1,1,1,0,15,15,21,,,,,,1,2.22,109,001,2019_Mar_15_1032,test_run,3.0.6,60.01956001173803,
23,TDI,TDI_23_doa_150219.wav,,,2,rating_t_initial.csv,t,initial,,,,,0,1,1,1,0,1,1,1,0,16,16,22,,,,,,1,3.687,109,001,2019_Mar_15_1032,test_run,3.0.6,60.01956001173803,
11,TTI,TTI_11_tipp_150219.wav,,,2,rating_t_initial.csv,t,initial,,,,,0,1,1,1,0,1,1,1,0,17,17,10,,,,,,7,1.938,109,001,2019_Mar_15_1032,test_run,3.0.6,60.01956001173803,
6,TTI,TTI_6_teg_150219.wav,,,2,rating_t_initial.csv,t,initial,,,,,0,1,1,1,0,1,1,1,0,18,18,5,,,,,,6,6.32,109,001,2019_Mar_15_1032,test_run,3.0.6,60.01956001173803,
9,TTI,TTI_9_till_150219.wav,,,2,rating_t_initial.csv,t,initial,,,,,0,1,1,1,0,1,1,1,0,19,19,8,,,,,,7,0.704,109,001,2019_Mar_15_1032,test_run,3.0.6,60.01956001173803,
8,TTI,TTI_8_tia_150219.wav,,,2,rating_t_initial.csv,t,initial,,,,,0,1,1,1,0,1,1,1,0,20,20,7,,,,,,7,0.67,109,001,2019_Mar_15_1032,test_run,3.0.6,60.01956001173803,
27,TDI,TDI_27_doem_edit_150219.wav,,,2,rating_t_initial.csv,t,initial,,,,,0,1,1,1,0,1,1,1,0,21,21,26,,,,,,2,4.737,109,001,2019_Mar_15_1032,test_run,3.0.6,60.01956001173803,
26,TDI,TDI_26_doe_150219.wav,,,2,rating_t_initial.csv,t,initial,,,,,0,1,1,1,0,1,1,1,0,22,22,25,,,,,,1,0.703,109,001,2019_Mar_15_1032,test_run,3.0.6,60.01956001173803,
7,TTI,TTI_7_tenn_150219.wav,,,2,rating_t_initial.csv,t,initial,,,,,0,1,1,1,0,1,1,1,0,23,23,6,,,,,,4,3.92,109,001,2019_Mar_15_1032,test_run,3.0.6,60.01956001173803,
15,TDI,TDI_15_dom_150219.wav,,,2,rating_t_initial.csv,t,initial,,,,,0,1,1,1,0,1,1,1,0,24,24,14,,,,,,1,0.754,109,001,2019_Mar_15_1032,test_run,3.0.6,60.01956001173803,
12,TTI,TTI_12_toa_150219.wav,,,2,rating_t_initial.csv,t,initial,,,,,0,1,1,1,0,1,1,1,0,25,25,11,,,,,,5,3.121,109,001,2019_Mar_15_1032,test_run,3.0.6,60.01956001173803,
20,TDI,TDI_20_dur_150219.wav,,,2,rating_t_initial.csv,t,initial,,,,,0,1,1,1,0,1,1,1,0,26,26,19,,,,,,1,2.32,109,001,2019_Mar_15_1032,test_run,3.0.6,60.01956001173803,
