item,item_cond,sound,corr_ans,group,block_id,listname,rating_for,position,trials.thisRepN,trials.thisTrialN,trials.thisN,trials.thisIndex,run_block_type.thisRepN,run_block_type.thisTrialN,run_block_type.thisN,run_block_type.thisIndex,routine.thisRepN,routine.thisTrialN,routine.thisN,routine.thisIndex,rating_trials.thisRepN,rating_trials.thisTrialN,rating_trials.thisN,rating_trials.thisIndex,key_resp_1.keys,key_resp_1.rt,key_resp_2.keys,key_resp_2.corr,key_resp_2.rt,rating_1.response,rating_1.rt,participant,session,date,expName,psychopyVersion,frameRate,
,,,,,,,,,,,,,,,,,,,,,,,,,space,11.320044891006546,,,,,,110,001,2019_Mar_15_1110,test_run,3.0.6,60.00193926137759,
146,ENW,ENW_56_lysskarna_150219.wav,n,c ,,,,,0,0,0,145,,,,,,,,,,,,,,,n,1,0.1855430220020935,,,110,001,2019_Mar_15_1110,test_run,3.0.6,60.00193926137759,
92,ENW,ENW_2_overralka_150219.wav,n,c ,,,,,0,1,1,91,,,,,,,,,,,,,,,n,1,1.5188277900015237,,,110,001,2019_Mar_15_1110,test_run,3.0.6,60.00193926137759,
176,ENW,ENW_86_heloppsin_150219.wav,n,c ,,,,,0,2,2,175,,,,,,,,,,,,,,,n,1,0.6523758599942084,,,110,001,2019_Mar_15_1110,test_run,3.0.6,60.00193926137759,
17,ECW,ECW_17_majonnaas_070319.wav,j,c ,,,,,0,3,3,16,,,,,,,,,,,,,,,j,1,0.9864004140108591,,,110,001,2019_Mar_15_1110,test_run,3.0.6,60.00193926137759,
113,ENW,ENW_23_allsänning_150219.wav,n,c ,,,,,0,4,4,112,,,,,,,,,,,,,,,n,1,0.7023306250048336,,,110,001,2019_Mar_15_1110,test_run,3.0.6,60.00193926137759,
6,ECW,ECW_6_sila_070319.wav,j,c ,,,,,0,5,5,5,,,,,,,,,,,,,,,j,1,2.0192376500053797,,,110,001,2019_Mar_15_1110,test_run,3.0.6,60.00193926137759,
40,EFW,EFW_10_laarare_070319.wav,j,c ,,,,,0,6,6,39,,,,,,,,,,,,,,,j,1,0.653171616999316,,,110,001,2019_Mar_15_1110,test_run,3.0.6,60.00193926137759,
121,ENW,ENW_31_romation_150219.wav,n,c ,,,,,0,7,7,120,,,,,,,,,,,,,,,n,1,0.8027136550081195,,,110,001,2019_Mar_15_1110,test_run,3.0.6,60.00193926137759,
91,ENW,ENW_1_norsimerar_150219.wav,n,c ,,,,,0,8,8,90,,,,,,,,,,,,,,,n,1,0.9360710569890216,,,110,001,2019_Mar_15_1110,test_run,3.0.6,60.00193926137759,
7,ECW,ECW_7_marin_070319.wav,j,c ,,,,,0,9,9,6,,,,,,,,,,,,,,,j,1,0.6188466489984421,,,110,001,2019_Mar_15_1110,test_run,3.0.6,60.00193926137759,
159,ENW,ENW_69_mjohusa_150219.wav,n,c ,,,,,0,10,10,158,,,,,,,,,,,,,,,n,1,0.7358587350026937,,,110,001,2019_Mar_15_1110,test_run,3.0.6,60.00193926137759,
100,ENW,ENW_10_skinnamer_150219.wav,n,c ,,,,,0,11,11,99,,,,,,,,,,,,,,,n,1,0.6169231810054043,,,110,001,2019_Mar_15_1110,test_run,3.0.6,60.00193926137759,
4,ECW,ECW_4_skraalla_070319.wav,j,c ,,,,,0,12,12,3,,,,,,,,,,,,,,,j,1,0.4190379529900383,,,110,001,2019_Mar_15_1110,test_run,3.0.6,60.00193926137759,
144,ENW,ENW_54_lomering_150219.wav,n,c ,,,,,0,13,13,143,,,,,,,,,,,,,,,n,1,1.95258702999854,,,110,001,2019_Mar_15_1110,test_run,3.0.6,60.00193926137759,
164,ENW,ENW_74_malsera_150219.wav,n,c ,,,,,0,14,14,163,,,,,,,,,,,,,,,n,1,0.45221698300156277,,,110,001,2019_Mar_15_1110,test_run,3.0.6,60.00193926137759,
65,EFW,EFW_35_affaarer_070319.wav,j,c ,,,,,0,15,15,64,,,,,,,,,,,,,,,j,1,0.3025976359931519,,,110,001,2019_Mar_15_1110,test_run,3.0.6,60.00193926137759,
148,ENW,ENW_58_malvossa_150219.wav,n,c ,,,,,0,16,16,147,,,,,,,,,,,,,,,n,1,0.33571316799498163,,,110,001,2019_Mar_15_1110,test_run,3.0.6,60.00193926137759,
109,ENW,ENW_19_morloren_150219.wav,n,c ,,,,,0,17,17,108,,,,,,,,,,,,,,,n,1,0.28601814799185377,,,110,001,2019_Mar_15_1110,test_run,3.0.6,60.00193926137759,
31,EFW,EFW_1_allmaan_070319.wav,j,c ,,,,,0,18,18,30,,,,,,,,,,,,,,,j,1,0.25288582799839787,,,110,001,2019_Mar_15_1110,test_run,3.0.6,60.00193926137759,
81,EFW,EFW_51_seminarier_070319.wav,j,c ,,,,,0,19,19,80,,,,,,,,,,,,,,,j,1,0.2860351349954726,,,110,001,2019_Mar_15_1110,test_run,3.0.6,60.00193926137759,
127,ENW,ENW_37_spallrivet_150219.wav,n,c ,,,,,0,20,20,126,,,,,,,,,,,,,,,n,1,0.33585868899535853,,,110,001,2019_Mar_15_1110,test_run,3.0.6,60.00193926137759,
141,ENW,ENW_51_skillare_150219.wav,n,c ,,,,,0,21,21,140,,,,,,,,,,,,,,,n,1,1.2688819250033703,,,110,001,2019_Mar_15_1110,test_run,3.0.6,60.00193926137759,
167,ENW,ENW_77_somfera_150219.wav,n,c ,,,,,0,22,22,166,,,,,,,,,,,,,,,n,1,0.3861456990125589,,,110,001,2019_Mar_15_1110,test_run,3.0.6,60.00193926137759,
179,ENW,ENW_89_mikenspoan_150219.wav,n,c ,,,,,0,23,23,178,,,,,,,,,,,,,,,n,1,0.31956263299798593,,,110,001,2019_Mar_15_1110,test_run,3.0.6,60.00193926137759,
18,ECW,ECW_18_morkulla_070319.wav,j,c ,,,,,0,24,24,17,,,,,,,,,,,,,,,j,1,0.31911286899412517,,,110,001,2019_Mar_15_1110,test_run,3.0.6,60.00193926137759,
86,EFW,EFW_56_mormor_070319.wav,j,c ,,,,,0,25,25,85,,,,,,,,,,,,,,,j,1,0.3024002530000871,,,110,001,2019_Mar_15_1110,test_run,3.0.6,60.00193926137759,
42,EFW,EFW_12_foeremoal_070319.wav,j,c ,,,,,0,26,26,41,,,,,,,,,,,,,,,j,1,0.3195274899917422,,,110,001,2019_Mar_15_1110,test_run,3.0.6,60.00193926137759,
158,ENW,ENW_68_presionar_150219.wav,n,c ,,,,,0,27,27,157,,,,,,,,,,,,,,,n,1,0.3364301819965476,,,110,001,2019_Mar_15_1110,test_run,3.0.6,60.00193926137759,
66,EFW,EFW_36_haarifroan_070319.wav,j,c ,,,,,0,28,28,65,,,,,,,,,,,,,,,j,1,0.25211420700361487,,,110,001,2019_Mar_15_1110,test_run,3.0.6,60.00193926137759,
53,EFW,EFW_23_aamne_070319.wav,j,c ,,,,,0,29,29,52,,,,,,,,,,,,,,,j,1,0.31914144099573605,,,110,001,2019_Mar_15_1110,test_run,3.0.6,60.00193926137759,
61,EFW,EFW_31_jaamfoera_070319.wav,j,c ,,,,,0,30,30,60,,,,,,,,,,,,,,,j,1,0.285871849002433,,,110,001,2019_Mar_15_1110,test_run,3.0.6,60.00193926137759,
60,EFW,EFW_30_officiella_070319.wav,j,c ,,,,,0,31,31,59,,,,,,,,,,,,,,,j,1,0.3189820029947441,,,110,001,2019_Mar_15_1110,test_run,3.0.6,60.00193926137759,
26,ECW,ECW_26_kroenikoeren_070319.wav,j,c ,,,,,0,32,32,25,,,,,,,,,,,,,,,j,1,0.28563277500506956,,,110,001,2019_Mar_15_1110,test_run,3.0.6,60.00193926137759,
95,ENW,ENW_5_spoamisk_150219.wav,n,c ,,,,,0,33,33,94,,,,,,,,,,,,,,,n,1,0.2860017150087515,,,110,001,2019_Mar_15_1110,test_run,3.0.6,60.00193926137759,
165,ENW,ENW_75_foarskining_150219.wav,n,c ,,,,,0,34,34,164,,,,,,,,,,,,,,,n,1,0.3855816230061464,,,110,001,2019_Mar_15_1110,test_run,3.0.6,60.00193926137759,
36,EFW,EFW_6_massa_070319.wav,j,c ,,,,,0,35,35,35,,,,,,,,,,,,,,,j,1,0.2190366750000976,,,110,001,2019_Mar_15_1110,test_run,3.0.6,60.00193926137759,
117,ENW,ENW_27_lyssvinner_150219.wav,n,c ,,,,,0,36,36,116,,,,,,,,,,,,,,,n,1,0.30215947500255425,,,110,001,2019_Mar_15_1110,test_run,3.0.6,60.00193926137759,
166,ENW,ENW_76_omfläskor_150219.wav,n,c ,,,,,0,37,37,165,,,,,,,,,,,,,,,n,1,0.3191460280067986,,,110,001,2019_Mar_15_1110,test_run,3.0.6,60.00193926137759,
162,ENW,ENW_72_urskecken_150219.wav,n,c ,,,,,0,38,38,161,,,,,,,,,,,,,,,n,1,0.26937833600095473,,,110,001,2019_Mar_15_1110,test_run,3.0.6,60.00193926137759,
43,EFW,EFW_13_elever_070319.wav,j,c ,,,,,0,39,39,42,,,,,,,,,,,,,,,j,1,0.26968286000192165,,,110,001,2019_Mar_15_1110,test_run,3.0.6,60.00193926137759,
88,EFW,EFW_58_examen_070319.wav,j,c ,,,,,0,40,40,87,,,,,,,,,,,,,,,j,1,0.2697167839942267,,,110,001,2019_Mar_15_1110,test_run,3.0.6,60.00193926137759,
110,ENW,ENW_20_invonen_150219.wav,n,c ,,,,,0,41,41,109,,,,,,,,,,,,,,,n,1,0.2697333880059887,,,110,001,2019_Mar_15_1110,test_run,3.0.6,60.00193926137759,
79,EFW,EFW_49_vaasen_070319.wav,j,c ,,,,,0,42,42,78,,,,,,,,,,,,,,,j,1,0.31902724799874704,,,110,001,2019_Mar_15_1110,test_run,3.0.6,60.00193926137759,
136,ENW,ENW_46_pommera_150219.wav,n,c ,,,,,0,43,43,135,,,,,,,,,,,,,,,n,1,0.63383528200211,,,110,001,2019_Mar_15_1110,test_run,3.0.6,60.00193926137759,
90,EFW,EFW_60_insulin_070319.wav,j,c ,,,,,0,44,44,89,,,,,,,,,,,,,,,j,1,0.3023630349925952,,,110,001,2019_Mar_15_1110,test_run,3.0.6,60.00193926137759,
20,ECW,ECW_20_sommarspel_070319.wav,j,c ,,,,,0,45,45,19,,,,,,,,,,,,,,,j,1,0.31943735798995476,,,110,001,2019_Mar_15_1110,test_run,3.0.6,60.00193926137759,
30,ECW,ECW_30_recensioner_070319.wav,j,c ,,,,,0,46,46,29,,,,,,,,,,,,,,,j,1,0.369233933990472,,,110,001,2019_Mar_15_1110,test_run,3.0.6,60.00193926137759,
177,ENW,ENW_87_kloavare_150219.wav,n,c ,,,,,0,47,47,176,,,,,,,,,,,,,,,n,1,0.30286217799584847,,,110,001,2019_Mar_15_1110,test_run,3.0.6,60.00193926137759,
142,ENW,ENW_52_filofyll_150219.wav,n,c ,,,,,0,48,48,141,,,,,,,,,,,,,,,n,1,0.38569109099626075,,,110,001,2019_Mar_15_1110,test_run,3.0.6,60.00193926137759,
128,ENW,ENW_38_roakanier_150219.wav,n,c ,,,,,0,49,49,127,,,,,,,,,,,,,,,n,1,0.2524959899892565,,,110,001,2019_Mar_15_1110,test_run,3.0.6,60.00193926137759,
16,ECW,ECW_16_skinskalle_070319.wav,j,c ,,,,,0,50,50,15,,,,,,,,,,,,,,,j,1,0.2193237239989685,,,110,001,2019_Mar_15_1110,test_run,3.0.6,60.00193926137759,
150,ENW,ENW_60_lackpenar_150219.wav,n,c ,,,,,0,51,51,149,,,,,,,,,,,,,,,n,1,0.2854338640026981,,,110,001,2019_Mar_15_1110,test_run,3.0.6,60.00193926137759,
151,ENW,ENW_61_myckskina_150219.wav,n,c ,,,,,0,52,52,150,,,,,,,,,,,,,,,n,1,0.2856948689877754,,,110,001,2019_Mar_15_1110,test_run,3.0.6,60.00193926137759,
124,ENW,ENW_34_jomera_150219.wav,n,c ,,,,,0,53,53,123,,,,,,,,,,,,,,,n,1,0.2838908809935674,,,110,001,2019_Mar_15_1110,test_run,3.0.6,60.00193926137759,
19,ECW,ECW_19_persiska_070319.wav,j,c ,,,,,0,54,54,18,,,,,,,,,,,,,,,j,1,0.2696471859962912,,,110,001,2019_Mar_15_1110,test_run,3.0.6,60.00193926137759,
45,EFW,EFW_15_oeverens_070319.wav,j,c ,,,,,0,55,55,44,,,,,,,,,,,,,,,j,1,0.2857049919985002,,,110,001,2019_Mar_15_1110,test_run,3.0.6,60.00193926137759,
51,EFW,EFW_21_varierar_070319.wav,j,c ,,,,,0,56,56,50,,,,,,,,,,,,,,,j,1,0.23366960699786432,,,110,001,2019_Mar_15_1110,test_run,3.0.6,60.00193926137759,
48,EFW,EFW_18_nummer_070319.wav,j,c ,,,,,0,57,57,47,,,,,,,,,,,,,,,j,1,0.23558062899974175,,,110,001,2019_Mar_15_1110,test_run,3.0.6,60.00193926137759,
37,EFW,EFW_7_sociala_070319.wav,j,c ,,,,,0,58,58,36,,,,,,,,,,,,,,,j,1,0.2363576549978461,,,110,001,2019_Mar_15_1110,test_run,3.0.6,60.00193926137759,
82,EFW,EFW_52_framhoalla_070319.wav,j,c ,,,,,0,59,59,81,,,,,,,,,,,,,,,j,1,0.25289420399349183,,,110,001,2019_Mar_15_1110,test_run,3.0.6,60.00193926137759,
99,ENW,ENW_9_samlemor_150219.wav,n,c ,,,,,0,60,60,98,,,,,,,,,,,,,,,n,1,0.25206385701312684,,,110,001,2019_Mar_15_1110,test_run,3.0.6,60.00193926137759,
84,EFW,EFW_54_romaner_070319.wav,j,c ,,,,,0,61,61,83,,,,,,,,,,,,,,,j,1,0.23620306899829302,,,110,001,2019_Mar_15_1110,test_run,3.0.6,60.00193926137759,
57,EFW,EFW_27_analysera_070319.wav,j,c ,,,,,0,62,62,56,,,,,,,,,,,,,,,j,1,0.2530131739913486,,,110,001,2019_Mar_15_1110,test_run,3.0.6,60.00193926137759,
132,ENW,ENW_42_hamsforing_150219.wav,n,c ,,,,,0,63,63,131,,,,,,,,,,,,,,,n,1,0.38557252699683886,,,110,001,2019_Mar_15_1110,test_run,3.0.6,60.00193926137759,
54,EFW,EFW_24_foersvinner_070319.wav,j,c ,,,,,0,64,64,53,,,,,,,,,,,,,,,j,1,0.23587592800322454,,,110,001,2019_Mar_15_1110,test_run,3.0.6,60.00193926137759,
78,EFW,EFW_48_varifroan_070319.wav,j,c ,,,,,0,65,65,77,,,,,,,,,,,,,,,j,1,0.18590158299775794,,,110,001,2019_Mar_15_1110,test_run,3.0.6,60.00193926137759,
106,ENW,ENW_16_rolinkar_150219.wav,n,c ,,,,,0,66,66,105,,,,,,,,,,,,,,,n,1,0.20227634500770364,,,110,001,2019_Mar_15_1110,test_run,3.0.6,60.00193926137759,
97,ENW,ENW_7_flasera_150219.wav,n,c ,,,,,0,67,67,96,,,,,,,,,,,,,,,n,1,0.2861348430014914,,,110,001,2019_Mar_15_1110,test_run,3.0.6,60.00193926137759,
47,EFW,EFW_17_januari_070319.wav,j,c ,,,,,0,68,68,46,,,,,,,,,,,,,,,j,1,0.2690833379892865,,,110,001,2019_Mar_15_1110,test_run,3.0.6,60.00193926137759,
111,ENW,ENW_21_tjulning_150219.wav,n,c ,,,,,0,69,69,110,,,,,,,,,,,,,,,j,0,0.7023209819890326,,,110,001,2019_Mar_15_1110,test_run,3.0.6,60.00193926137759,
83,EFW,EFW_53_sovrum_070319.wav,j,c ,,,,,0,70,70,82,,,,,,,,,,,,,,,j,1,0.28611098100373056,,,110,001,2019_Mar_15_1110,test_run,3.0.6,60.00193926137759,
133,ENW,ENW_43_axalän_150219.wav,n,c ,,,,,0,71,71,132,,,,,,,,,,,,,,,n,1,0.38703778499620967,,,110,001,2019_Mar_15_1110,test_run,3.0.6,60.00193926137759,
171,ENW,ENW_81_persifera_150219.wav,n,c ,,,,,0,72,72,170,,,,,,,,,,,,,,,n,1,0.26880503799475264,,,110,001,2019_Mar_15_1110,test_run,3.0.6,60.00193926137759,
73,EFW,EFW_43_halvoar_070319.wav,j,c ,,,,,0,73,73,72,,,,,,,,,,,,,,,j,1,0.2693857229896821,,,110,001,2019_Mar_15_1110,test_run,3.0.6,60.00193926137759,
118,ENW,ENW_28_läkermask_150219.wav,n,c ,,,,,0,74,74,117,,,,,,,,,,,,,,,j,0,0.9690721349907108,,,110,001,2019_Mar_15_1110,test_run,3.0.6,60.00193926137759,
22,ECW,ECW_22_anonyma_070319.wav,j,c ,,,,,0,75,75,21,,,,,,,,,,,,,,,j,1,0.2522630359890172,,,110,001,2019_Mar_15_1110,test_run,3.0.6,60.00193926137759,
25,ECW,ECW_25_oeverfoeras_070319.wav,j,c ,,,,,0,76,76,24,,,,,,,,,,,,,,,j,1,0.30246722999436315,,,110,001,2019_Mar_15_1110,test_run,3.0.6,60.00193926137759,
107,ENW,ENW_17_kopynnor_150219.wav,n,c ,,,,,0,77,77,106,,,,,,,,,,,,,,,n,1,0.38580072100739926,,,110,001,2019_Mar_15_1110,test_run,3.0.6,60.00193926137759,
168,ENW,ENW_78_morvinder_150219.wav,n,c ,,,,,0,78,78,167,,,,,,,,,,,,,,,n,1,0.31886279699392617,,,110,001,2019_Mar_15_1110,test_run,3.0.6,60.00193926137759,
140,ENW,ENW_50_omsänare_150219.wav,n,c ,,,,,0,79,79,139,,,,,,,,,,,,,,,n,1,0.30304851300024893,,,110,001,2019_Mar_15_1110,test_run,3.0.6,60.00193926137759,
170,ENW,ENW_80_tjarfera_150219.wav,n,c ,,,,,0,80,80,169,,,,,,,,,,,,,,,n,1,0.26896184899669606,,,110,001,2019_Mar_15_1110,test_run,3.0.6,60.00193926137759,
77,EFW,EFW_47_invoanare_070319.wav,j,c ,,,,,0,81,81,76,,,,,,,,,,,,,,,j,1,0.2358201699971687,,,110,001,2019_Mar_15_1110,test_run,3.0.6,60.00193926137759,
155,ENW,ENW_65_hamfylla_150219.wav,n,c ,,,,,0,82,82,154,,,,,,,,,,,,,,,n,1,0.2360940579965245,,,110,001,2019_Mar_15_1110,test_run,3.0.6,60.00193926137759,
102,ENW,ENW_12_snälmola_150219.wav,n,c ,,,,,0,83,83,101,,,,,,,,,,,,,,,n,1,0.45209201199759264,,,110,001,2019_Mar_15_1110,test_run,3.0.6,60.00193926137759,
28,ECW,ECW_28_maskinerna_070319.wav,j,c ,,,,,0,84,84,27,,,,,,,,,,,,,,,j,1,0.253074722000747,,,110,001,2019_Mar_15_1110,test_run,3.0.6,60.00193926137759,
46,EFW,EFW_16_lyssna_070319.wav,j,c ,,,,,0,85,85,45,,,,,,,,,,,,,,,j,1,0.218767783997464,,,110,001,2019_Mar_15_1110,test_run,3.0.6,60.00193926137759,
112,ENW,ENW_22_fjäserna_150219.wav,n,c ,,,,,0,86,86,111,,,,,,,,,,,,,,,n,1,0.28589336000732146,,,110,001,2019_Mar_15_1110,test_run,3.0.6,60.00193926137759,
58,EFW,EFW_28_olja_070319.wav,j,c ,,,,,0,87,87,57,,,,,,,,,,,,,,,j,1,0.31891883799107745,,,110,001,2019_Mar_15_1110,test_run,3.0.6,60.00193926137759,
153,ENW,ENW_63_femyrisk_150219.wav,n,c ,,,,,0,88,88,152,,,,,,,,,,,,,,,n,1,0.30234031500003766,,,110,001,2019_Mar_15_1110,test_run,3.0.6,60.00193926137759,
21,ECW,ECW_21_husera_070319.wav,j,c ,,,,,0,89,89,20,,,,,,,,,,,,,,,j,1,0.2527299790090183,,,110,001,2019_Mar_15_1110,test_run,3.0.6,60.00193926137759,
130,ENW,ENW_40_knipackar_150219.wav,n,c ,,,,,0,90,90,129,,,,,,,,,,,,,,,n,1,0.2525533199950587,,,110,001,2019_Mar_15_1110,test_run,3.0.6,60.00193926137759,
163,ENW,ENW_73_vimmankalla_150219.wav,n,c ,,,,,0,91,91,162,,,,,,,,,,,,,,,n,1,0.30029094801284373,,,110,001,2019_Mar_15_1110,test_run,3.0.6,60.00193926137759,
160,ENW,ENW_70_roklarner_150219.wav,n,c ,,,,,0,92,92,159,,,,,,,,,,,,,,,n,1,0.26935663100448437,,,110,001,2019_Mar_15_1110,test_run,3.0.6,60.00193926137759,
119,ENW,ENW_29_uppskira_150219.wav,n,c ,,,,,0,93,93,118,,,,,,,,,,,,,,,n,1,0.25273941800696775,,,110,001,2019_Mar_15_1110,test_run,3.0.6,60.00193926137759,
13,ECW,ECW_13_kanonform_070319.wav,j,c ,,,,,0,94,94,12,,,,,,,,,,,,,,,j,1,1.1362633690005168,,,110,001,2019_Mar_15_1110,test_run,3.0.6,60.00193926137759,
62,EFW,EFW_32_fyller_070319.wav,j,c ,,,,,0,95,95,61,,,,,,,,,,,,,,,n,0,0.3194933380000293,,,110,001,2019_Mar_15_1110,test_run,3.0.6,60.00193926137759,
147,ENW,ENW_57_flovanning_150219.wav,n,c ,,,,,0,96,96,146,,,,,,,,,,,,,,,n,1,0.2855865980091039,,,110,001,2019_Mar_15_1110,test_run,3.0.6,60.00193926137759,
38,EFW,EFW_8_samman_070319.wav,j,c ,,,,,0,97,97,37,,,,,,,,,,,,,,,n,0,0.2693120670010103,,,110,001,2019_Mar_15_1110,test_run,3.0.6,60.00193926137759,
125,ENW,ENW_35_nymaljen_150219.wav,n,c ,,,,,0,98,98,124,,,,,,,,,,,,,,,n,1,0.3526498969877139,,,110,001,2019_Mar_15_1110,test_run,3.0.6,60.00193926137759,
74,EFW,EFW_44_ljusa_070319.wav,j,c ,,,,,0,99,99,73,,,,,,,,,,,,,,,j,1,0.2030521960114129,,,110,001,2019_Mar_15_1110,test_run,3.0.6,60.00193926137759,
143,ENW,ENW_53_svarmvisso_150219.wav,n,c ,,,,,0,100,100,142,,,,,,,,,,,,,,,n,1,0.28623043099651113,,,110,001,2019_Mar_15_1110,test_run,3.0.6,60.00193926137759,
172,ENW,ENW_82_värskappa_150219.wav,n,c ,,,,,0,101,101,171,,,,,,,,,,,,,,,n,1,0.2189852240117034,,,110,001,2019_Mar_15_1110,test_run,3.0.6,60.00193926137759,
122,ENW,ENW_32_fonering_150219.wav,n,c ,,,,,0,102,102,121,,,,,,,,,,,,,,,n,1,0.9521970470086671,,,110,001,2019_Mar_15_1110,test_run,3.0.6,60.00193926137759,
80,EFW,EFW_50_snaalla_070319.wav,j,c ,,,,,0,103,103,79,,,,,,,,,,,,,,,j,1,0.23575176899612416,,,110,001,2019_Mar_15_1110,test_run,3.0.6,60.00193926137759,
138,ENW,ENW_48_skyjamsen_150219.wav,n,c ,,,,,0,104,104,137,,,,,,,,,,,,,,,n,1,0.2859092110011261,,,110,001,2019_Mar_15_1110,test_run,3.0.6,60.00193926137759,
3,ECW,ECW_3_virus_070319.wav,j,c ,,,,,0,105,105,2,,,,,,,,,,,,,,,j,1,0.2358426130085718,,,110,001,2019_Mar_15_1110,test_run,3.0.6,60.00193926137759,
93,ENW,ENW_3_vissorens_150219.wav,n,c ,,,,,0,106,106,92,,,,,,,,,,,,,,,n,1,0.2693713229964487,,,110,001,2019_Mar_15_1110,test_run,3.0.6,60.00193926137759,
67,EFW,EFW_37_foervisso_070319.wav,j,c ,,,,,0,107,107,66,,,,,,,,,,,,,,,j,1,0.03614278000895865,,,110,001,2019_Mar_15_1110,test_run,3.0.6,60.00193926137759,
85,EFW,EFW_55_oroar_070319.wav,j,c ,,,,,0,108,108,84,,,,,,,,,,,,,,,j,1,0.30310114100575447,,,110,001,2019_Mar_15_1110,test_run,3.0.6,60.00193926137759,
69,EFW,EFW_39_foersvara_070319.wav,j,c ,,,,,0,109,109,68,,,,,,,,,,,,,,,j,1,0.21907730000384618,,,110,001,2019_Mar_15_1110,test_run,3.0.6,60.00193926137759,
152,ENW,ENW_62_ljullepilja_150219.wav,n,c ,,,,,0,110,110,151,,,,,,,,,,,,,,,j,0,0.352491669007577,,,110,001,2019_Mar_15_1110,test_run,3.0.6,60.00193926137759,
68,EFW,EFW_38_foerefoell_070319.wav,j,c ,,,,,0,111,111,67,,,,,,,,,,,,,,,j,1,0.3021702990081394,,,110,001,2019_Mar_15_1110,test_run,3.0.6,60.00193926137759,
9,ECW,ECW_9_spinna_070319.wav,j,c ,,,,,0,112,112,8,,,,,,,,,,,,,,,j,1,0.18635221499425825,,,110,001,2019_Mar_15_1110,test_run,3.0.6,60.00193926137759,
41,EFW,EFW_11_maanniskor_070319.wav,j,c ,,,,,0,113,113,40,,,,,,,,,,,,,,,j,1,0.05297793498903047,,,110,001,2019_Mar_15_1110,test_run,3.0.6,60.00193926137759,
87,EFW,EFW_57_loenerna_070319.wav,j,c ,,,,,0,114,114,86,,,,,,,,,,,,,,,j,1,0.2029623850103235,,,110,001,2019_Mar_15_1110,test_run,3.0.6,60.00193926137759,
135,ENW,ENW_45_fammoarens_150219.wav,n,c ,,,,,0,115,115,134,,,,,,,,,,,,,,,n,1,0.28616140299709514,,,110,001,2019_Mar_15_1110,test_run,3.0.6,60.00193926137759,
55,EFW,EFW_25_informera_070319.wav,j,c ,,,,,0,116,116,54,,,,,,,,,,,,,,,j,1,0.18586428801063448,,,110,001,2019_Mar_15_1110,test_run,3.0.6,60.00193926137759,
70,EFW,EFW_40_miljoner_070319.wav,j,c ,,,,,0,117,117,69,,,,,,,,,,,,,,,j,1,0.18609159100742545,,,110,001,2019_Mar_15_1110,test_run,3.0.6,60.00193926137759,
23,ECW,ECW_23_maximal_070319.wav,j,c ,,,,,0,118,118,22,,,,,,,,,,,,,,,j,1,0.2365641389915254,,,110,001,2019_Mar_15_1110,test_run,3.0.6,60.00193926137759,
94,ENW,ENW_4_kyllfaren_150219.wav,n,c ,,,,,0,119,119,93,,,,,,,,,,,,,,,n,1,0.23588966099487152,,,110,001,2019_Mar_15_1110,test_run,3.0.6,60.00193926137759,
104,ENW,ENW_14_kärmenor_150219.wav,n,c ,,,,,0,120,120,103,,,,,,,,,,,,,,,n,1,0.23552059999201447,,,110,001,2019_Mar_15_1110,test_run,3.0.6,60.00193926137759,
27,ECW,ECW_27_panorama_070319.wav,j,c ,,,,,0,121,121,26,,,,,,,,,,,,,,,j,1,0.18561758000578266,,,110,001,2019_Mar_15_1110,test_run,3.0.6,60.00193926137759,
2,ECW,ECW_2_hinna_070319.wav,j,c ,,,,,0,122,122,1,,,,,,,,,,,,,,,j,1,0.21916341000178363,,,110,001,2019_Mar_15_1110,test_run,3.0.6,60.00193926137759,
75,EFW,EFW_45_innanfoer_070319.wav,j,c ,,,,,0,123,123,74,,,,,,,,,,,,,,,j,1,0.21955151499423664,,,110,001,2019_Mar_15_1110,test_run,3.0.6,60.00193926137759,
24,ECW,ECW_24_fysiker_070319.wav,j,c ,,,,,0,124,124,23,,,,,,,,,,,,,,,j,1,0.21896619400649797,,,110,001,2019_Mar_15_1110,test_run,3.0.6,60.00193926137759,
115,ENW,ENW_25_affierar_150219.wav,n,c ,,,,,0,125,125,114,,,,,,,,,,,,,,,n,1,0.2530859479884384,,,110,001,2019_Mar_15_1110,test_run,3.0.6,60.00193926137759,
174,ENW,ENW_84_hurmarna_150219.wav,n,c ,,,,,0,126,126,173,,,,,,,,,,,,,,,n,1,0.21926977000839543,,,110,001,2019_Mar_15_1110,test_run,3.0.6,60.00193926137759,
32,EFW,EFW_2_snarare_070319.wav,j,c ,,,,,0,127,127,31,,,,,,,,,,,,,,,j,1,0.33565798099152744,,,110,001,2019_Mar_15_1110,test_run,3.0.6,60.00193926137759,
173,ENW,ENW_83_fyrskovar_150219.wav,n,c ,,,,,0,128,128,172,,,,,,,,,,,,,,,n,1,0.20256288300151937,,,110,001,2019_Mar_15_1110,test_run,3.0.6,60.00193926137759,
72,EFW,EFW_42_naavaron_070319.wav,j,c ,,,,,0,129,129,71,,,,,,,,,,,,,,,j,1,0.2530845299916109,,,110,001,2019_Mar_15_1110,test_run,3.0.6,60.00193926137759,
96,ENW,ENW_6_vilfroaser_150219.wav,n,c ,,,,,0,130,130,95,,,,,,,,,,,,,,,n,1,0.019551643999875523,,,110,001,2019_Mar_15_1110,test_run,3.0.6,60.00193926137759,
89,EFW,EFW_59_filosofin_070319.wav,j,c ,,,,,0,131,131,88,,,,,,,,,,,,,,,j,1,0.18582739699922968,,,110,001,2019_Mar_15_1110,test_run,3.0.6,60.00193926137759,
39,EFW,EFW_9_infektion_070319.wav,j,c ,,,,,0,132,132,38,,,,,,,,,,,,,,,j,1,0.21915360499406233,,,110,001,2019_Mar_15_1110,test_run,3.0.6,60.00193926137759,
123,ENW,ENW_33_froamation_150219.wav,n,c ,,,,,0,133,133,122,,,,,,,,,,,,,,,n,1,0.11967903500772081,,,110,001,2019_Mar_15_1110,test_run,3.0.6,60.00193926137759,
50,EFW,EFW_20_fenomen_070319.wav,j,c ,,,,,0,134,134,49,,,,,,,,,,,,,,,j,1,0.21984710400283802,,,110,001,2019_Mar_15_1110,test_run,3.0.6,60.00193926137759,
131,ENW,ENW_41_vessmaren_150219.wav,n,c ,,,,,0,135,135,130,,,,,,,,,,,,,,,n,1,0.21928550099255517,,,110,001,2019_Mar_15_1110,test_run,3.0.6,60.00193926137759,
10,ECW,ECW_10_flisa_070319.wav,j,c ,,,,,0,136,136,9,,,,,,,,,,,,,,,j,1,0.08575925999321043,,,110,001,2019_Mar_15_1110,test_run,3.0.6,60.00193926137759,
114,ENW,ENW_24_samjoner_150219.wav,n,c ,,,,,0,137,137,113,,,,,,,,,,,,,,,n,1,0.2522752689983463,,,110,001,2019_Mar_15_1110,test_run,3.0.6,60.00193926137759,
64,EFW,EFW_34_sommar_070319.wav,j,c ,,,,,0,138,138,63,,,,,,,,,,,,,,,j,1,0.3191519719985081,,,110,001,2019_Mar_15_1110,test_run,3.0.6,60.00193926137759,
145,ENW,ENW_55_invaskin_150219.wav,n,c ,,,,,0,139,139,144,,,,,,,,,,,,,,,n,1,0.2862564770039171,,,110,001,2019_Mar_15_1110,test_run,3.0.6,60.00193926137759,
139,ENW,ENW_49_hälskrena_150219.wav,n,c ,,,,,0,140,140,138,,,,,,,,,,,,,,,n,1,0.16949466500955168,,,110,001,2019_Mar_15_1110,test_run,3.0.6,60.00193926137759,
12,ECW,ECW_12_moehippa_070319.wav,j,c ,,,,,0,141,141,11,,,,,,,,,,,,,,,j,1,0.3195270379947033,,,110,001,2019_Mar_15_1110,test_run,3.0.6,60.00193926137759,
49,EFW,EFW_19_roerelse_070319.wav,j,c ,,,,,0,142,142,48,,,,,,,,,,,,,,,j,1,0.23597914198762737,,,110,001,2019_Mar_15_1110,test_run,3.0.6,60.00193926137759,
175,ENW,ENW_85_forlinna_150219.wav,n,c ,,,,,0,143,143,174,,,,,,,,,,,,,,,n,1,0.25199417299882043,,,110,001,2019_Mar_15_1110,test_run,3.0.6,60.00193926137759,
59,EFW,EFW_29_formen_070319.wav,j,c ,,,,,0,144,144,58,,,,,,,,,,,,,,,j,1,0.25246413800050505,,,110,001,2019_Mar_15_1110,test_run,3.0.6,60.00193926137759,
15,ECW,ECW_15_tjuvarna_070319.wav,j,c ,,,,,0,145,145,14,,,,,,,,,,,,,,,j,1,0.2192576800007373,,,110,001,2019_Mar_15_1110,test_run,3.0.6,60.00193926137759,
8,ECW,ECW_8_fryshus_070319.wav,j,c ,,,,,0,146,146,7,,,,,,,,,,,,,,,j,1,0.2030760899942834,,,110,001,2019_Mar_15_1110,test_run,3.0.6,60.00193926137759,
137,ENW,ENW_47_oafläppen_150219.wav,n,c ,,,,,0,147,147,136,,,,,,,,,,,,,,,n,1,0.6194660759938415,,,110,001,2019_Mar_15_1110,test_run,3.0.6,60.00193926137759,
33,EFW,EFW_3_familjen_070319.wav,j,c ,,,,,0,148,148,32,,,,,,,,,,,,,,,j,1,0.25295328699576203,,,110,001,2019_Mar_15_1110,test_run,3.0.6,60.00193926137759,
98,ENW,ENW_8_haväras_150219.wav,n,c ,,,,,0,149,149,97,,,,,,,,,,,,,,,n,1,0.3354892200004542,,,110,001,2019_Mar_15_1110,test_run,3.0.6,60.00193926137759,
34,EFW,EFW_4_foerminska_070319.wav,j,c ,,,,,0,150,150,33,,,,,,,,,,,,,,,j,1,0.23640489799436182,,,110,001,2019_Mar_15_1110,test_run,3.0.6,60.00193926137759,
108,ENW,ENW_18_moalursena_150219.wav,n,c ,,,,,0,151,151,107,,,,,,,,,,,,,,,n,1,0.25256688699300867,,,110,001,2019_Mar_15_1110,test_run,3.0.6,60.00193926137759,
76,EFW,EFW_46_foerhoer_070319.wav,j,c ,,,,,0,152,152,75,,,,,,,,,,,,,,,j,1,0.2696274839981925,,,110,001,2019_Mar_15_1110,test_run,3.0.6,60.00193926137759,
120,ENW,ENW_30_sojera_150219.wav,n,c ,,,,,0,153,153,119,,,,,,,,,,,,,,,n,1,0.23602538500563242,,,110,001,2019_Mar_15_1110,test_run,3.0.6,60.00193926137759,
29,ECW,ECW_29_mejerier_070319.wav,j,c ,,,,,0,154,154,28,,,,,,,,,,,,,,,j,1,0.26881182900979184,,,110,001,2019_Mar_15_1110,test_run,3.0.6,60.00193926137759,
101,ENW,ENW_11_fränna_150219.wav,n,c ,,,,,0,155,155,100,,,,,,,,,,,,,,,n,1,0.23624613000720274,,,110,001,2019_Mar_15_1110,test_run,3.0.6,60.00193926137759,
178,ENW,ENW_88_marsifen_150219.wav,n,c ,,,,,0,156,156,177,,,,,,,,,,,,,,,n,1,0.4360100569901988,,,110,001,2019_Mar_15_1110,test_run,3.0.6,60.00193926137759,
52,EFW,EFW_22_normala_070319.wav,j,c ,,,,,0,157,157,51,,,,,,,,,,,,,,,j,1,0.2355563299934147,,,110,001,2019_Mar_15_1110,test_run,3.0.6,60.00193926137759,
126,ENW,ENW_36_skymlosa_150219.wav,n,c ,,,,,0,158,158,125,,,,,,,,,,,,,,,n,1,1.8360698660108028,,,110,001,2019_Mar_15_1110,test_run,3.0.6,60.00193926137759,
180,ENW,ENW_90_skrivinar_150219.wav,n,c ,,,,,0,159,159,179,,,,,,,,,,,,,,,n,1,0.43383023999922443,,,110,001,2019_Mar_15_1110,test_run,3.0.6,60.00193926137759,
11,ECW,ECW_11_foersoeka_070319.wav,j,c ,,,,,0,160,160,10,,,,,,,,,,,,,,,j,1,0.2025945880013751,,,110,001,2019_Mar_15_1110,test_run,3.0.6,60.00193926137759,
56,EFW,EFW_26_armarna_070319.wav,j,c ,,,,,0,161,161,55,,,,,,,,,,,,,,,j,1,0.18553602800238878,,,110,001,2019_Mar_15_1110,test_run,3.0.6,60.00193926137759,
129,ENW,ENW_39_ljusonar_150219.wav,n,c ,,,,,0,162,162,128,,,,,,,,,,,,,,,n,1,0.36927321000257507,,,110,001,2019_Mar_15_1110,test_run,3.0.6,60.00193926137759,
71,EFW,EFW_41_infinna_070319.wav,j,c ,,,,,0,163,163,70,,,,,,,,,,,,,,,j,1,0.10290620700106956,,,110,001,2019_Mar_15_1110,test_run,3.0.6,60.00193926137759,
105,ENW,ENW_15_forfeckla_150219.wav,n,c ,,,,,0,164,164,104,,,,,,,,,,,,,,,n,1,1.9688708979956573,,,110,001,2019_Mar_15_1110,test_run,3.0.6,60.00193926137759,
134,ENW,ENW_44_inlivna_150219.wav,n,c ,,,,,0,165,165,133,,,,,,,,,,,,,,,n,1,0.25224344700109214,,,110,001,2019_Mar_15_1110,test_run,3.0.6,60.00193926137759,
14,ECW,ECW_14_excellens_070319.wav,j,c ,,,,,0,166,166,13,,,,,,,,,,,,,,,j,1,0.5022995509934844,,,110,001,2019_Mar_15_1110,test_run,3.0.6,60.00193926137759,
1,ECW,ECW_1_anka_070319.wav,j,c ,,,,,0,167,167,0,,,,,,,,,,,,,,,j,1,0.2527462819998618,,,110,001,2019_Mar_15_1110,test_run,3.0.6,60.00193926137759,
161,ENW,ENW_71_forskäckla_150219.wav,n,c ,,,,,0,168,168,160,,,,,,,,,,,,,,,j,0,0.269026328009204,,,110,001,2019_Mar_15_1110,test_run,3.0.6,60.00193926137759,
5,ECW,ECW_5_kamma_070319.wav,j,c ,,,,,0,169,169,4,,,,,,,,,,,,,,,j,1,0.2530885820015101,,,110,001,2019_Mar_15_1110,test_run,3.0.6,60.00193926137759,
116,ENW,ENW_26_anufera_150219.wav,n,c ,,,,,0,170,170,115,,,,,,,,,,,,,,,n,1,0.369157199995243,,,110,001,2019_Mar_15_1110,test_run,3.0.6,60.00193926137759,
63,EFW,EFW_33_elva_070319.wav,j,c ,,,,,0,171,171,62,,,,,,,,,,,,,,,j,1,0.21704676999070216,,,110,001,2019_Mar_15_1110,test_run,3.0.6,60.00193926137759,
154,ENW,ENW_64_havskvare_150219.wav,n,c ,,,,,0,172,172,153,,,,,,,,,,,,,,,n,1,0.33637597601045854,,,110,001,2019_Mar_15_1110,test_run,3.0.6,60.00193926137759,
103,ENW,ENW_13_forvaron_150219.wav,n,c ,,,,,0,173,173,102,,,,,,,,,,,,,,,n,1,0.25289097300264984,,,110,001,2019_Mar_15_1110,test_run,3.0.6,60.00193926137759,
35,EFW,EFW_5_samhaalle_070319.wav,j,c ,,,,,0,174,174,34,,,,,,,,,,,,,,,j,1,0.2363905899983365,,,110,001,2019_Mar_15_1110,test_run,3.0.6,60.00193926137759,
169,ENW,ENW_79_lyxmare_150219.wav,n,c ,,,,,0,175,175,168,,,,,,,,,,,,,,,n,1,0.21876925899414346,,,110,001,2019_Mar_15_1110,test_run,3.0.6,60.00193926137759,
149,ENW,ENW_59_kyrkmänning_150219.wav,n,c ,,,,,0,176,176,148,,,,,,,,,,,,,,,n,1,0.2360287710034754,,,110,001,2019_Mar_15_1110,test_run,3.0.6,60.00193926137759,
157,ENW,ENW_67_oafreskar_150219.wav,n,c ,,,,,0,177,177,156,,,,,,,,,,,,,,,n,1,0.23571432400785852,,,110,001,2019_Mar_15_1110,test_run,3.0.6,60.00193926137759,
156,ENW,ENW_66_voarsmenar_150219.wav,n,c ,,,,,0,178,178,155,,,,,,,,,,,,,,,n,1,0.1695506359974388,,,110,001,2019_Mar_15_1110,test_run,3.0.6,60.00193926137759,
44,EFW,EFW_14_foersoeken_070319.wav,j,c ,,,,,0,179,179,43,,,,,,,,,,,,,,,j,1,0.08575417099928018,,,110,001,2019_Mar_15_1110,test_run,3.0.6,60.00193926137759,
31,TTF,TTF_31_brott_070319.wav,,,1,rating_d_final.csv,d,final,,,,,0,0,0,0,0,0,0,0,0,0,0,30,,,,,,1,18.204,110,001,2019_Mar_15_1110,test_run,3.0.6,60.00193926137759,
21,TTF,TTF_21_gjoet_070319.wav,,,1,rating_d_final.csv,d,final,,,,,0,0,0,0,0,0,0,0,0,1,1,20,,,,,,2,5.719,110,001,2019_Mar_15_1110,test_run,3.0.6,60.00193926137759,
3,TDF,TDF_3_raad_070319.wav,,,1,rating_d_final.csv,d,final,,,,,0,0,0,0,0,0,0,0,0,2,2,2,,,,,,6,4.27,110,001,2019_Mar_15_1110,test_run,3.0.6,60.00193926137759,
12,TDF,TDF_12_smed_070319.wav,,,1,rating_d_final.csv,d,final,,,,,0,0,0,0,0,0,0,0,0,3,3,11,,,,,,7,1.253,110,001,2019_Mar_15_1110,test_run,3.0.6,60.00193926137759,
5,TDF,TDF_5_voad_070319.wav,,,1,rating_d_final.csv,d,final,,,,,0,0,0,0,0,0,0,0,0,4,4,4,,,,,,7,0.903,110,001,2019_Mar_15_1110,test_run,3.0.6,60.00193926137759,
32,TTF,TTF_32_hoart_070319.wav,,,1,rating_d_final.csv,d,final,,,,,0,0,0,0,0,0,0,0,0,5,5,31,,,,,,4,2.736,110,001,2019_Mar_15_1110,test_run,3.0.6,60.00193926137759,
2,TDF,TDF_2_ved_070319.wav,,,1,rating_d_final.csv,d,final,,,,,0,0,0,0,0,0,0,0,0,6,6,1,,,,,,7,0.753,110,001,2019_Mar_15_1110,test_run,3.0.6,60.00193926137759,
14,TDF,TDF_14_mod_070319.wav,,,1,rating_d_final.csv,d,final,,,,,0,0,0,0,0,0,0,0,0,7,7,13,,,,,,7,1.587,110,001,2019_Mar_15_1110,test_run,3.0.6,60.00193926137759,
4,TDF,TDF_4_rod_070319.wav,,,1,rating_d_final.csv,d,final,,,,,0,0,0,0,0,0,0,0,0,8,8,3,,,,,,7,1.236,110,001,2019_Mar_15_1110,test_run,3.0.6,60.00193926137759,
7,TDF,TDF_7_vid_070319.wav,,,1,rating_d_final.csv,d,final,,,,,0,0,0,0,0,0,0,0,0,9,9,6,,,,,,6,0.787,110,001,2019_Mar_15_1110,test_run,3.0.6,60.00193926137759,
26,TTF,TTF_26_rymt_070319.wav,,,1,rating_d_final.csv,d,final,,,,,0,0,0,0,0,0,0,0,0,10,10,25,,,,,,4,0.753,110,001,2019_Mar_15_1110,test_run,3.0.6,60.00193926137759,
17,TTF,TTF_17_sket_070319.wav,,,1,rating_d_final.csv,d,final,,,,,0,0,0,0,0,0,0,0,0,11,11,16,,,,,,1,1.619,110,001,2019_Mar_15_1110,test_run,3.0.6,60.00193926137759,
23,TTF,TTF_23_hut_070319.wav,,,1,rating_d_final.csv,d,final,,,,,0,0,0,0,0,0,0,0,0,12,12,22,,,,,,1,0.687,110,001,2019_Mar_15_1110,test_run,3.0.6,60.00193926137759,
19,TTF,TTF_19_skoet_070319.wav,,,1,rating_d_final.csv,d,final,,,,,0,0,0,0,0,0,0,0,0,13,13,18,,,,,,1,0.686,110,001,2019_Mar_15_1110,test_run,3.0.6,60.00193926137759,
15,TDF,TDF_15_nod_070319.wav,,,1,rating_d_final.csv,d,final,,,,,0,0,0,0,0,0,0,0,0,14,14,14,,,,,,5,1.586,110,001,2019_Mar_15_1110,test_run,3.0.6,60.00193926137759,
24,TTF,TTF_24_smit_070319.wav,,,1,rating_d_final.csv,d,final,,,,,0,0,0,0,0,0,0,0,0,15,15,23,,,,,,2,4.236,110,001,2019_Mar_15_1110,test_run,3.0.6,60.00193926137759,
6,TDF,TDF_6_voard_070319.wav,,,1,rating_d_final.csv,d,final,,,,,0,0,0,0,0,0,0,0,0,16,16,5,,,,,,6,2.536,110,001,2019_Mar_15_1110,test_run,3.0.6,60.00193926137759,
1,TDF,TDF_1_rid_070319.wav,,,1,rating_d_final.csv,d,final,,,,,0,0,0,0,0,0,0,0,0,17,17,0,,,,,,5,5.053,110,001,2019_Mar_15_1110,test_run,3.0.6,60.00193926137759,
30,TTF,TTF_30_slatt_070319.wav,,,1,rating_d_final.csv,d,final,,,,,0,0,0,0,0,0,0,0,0,18,18,29,,,,,,1,0.904,110,001,2019_Mar_15_1110,test_run,3.0.6,60.00193926137759,
22,TTF,TTF_22_het_070319.wav,,,1,rating_d_final.csv,d,final,,,,,0,0,0,0,0,0,0,0,0,19,19,21,,,,,,2,0.753,110,001,2019_Mar_15_1110,test_run,3.0.6,60.00193926137759,
18,TTF,TTF_18_skjut_070319.wav,,,1,rating_d_final.csv,d,final,,,,,0,0,0,0,0,0,0,0,0,20,20,17,,,,,,1,1.12,110,001,2019_Mar_15_1110,test_run,3.0.6,60.00193926137759,
27,TTF,TTF_27_sant_070319.wav,,,1,rating_d_final.csv,d,final,,,,,0,0,0,0,0,0,0,0,0,21,21,26,,,,,,1,0.803,110,001,2019_Mar_15_1110,test_run,3.0.6,60.00193926137759,
25,TTF,TTF_25_synt_070319.wav,,,1,rating_d_final.csv,d,final,,,,,0,0,0,0,0,0,0,0,0,22,22,24,,,,,,1,0.569,110,001,2019_Mar_15_1110,test_run,3.0.6,60.00193926137759,
16,TDF,TDF_16_fond_070319.wav,,,1,rating_d_final.csv,d,final,,,,,0,0,0,0,0,0,0,0,0,23,23,15,,,,,,5,1.27,110,001,2019_Mar_15_1110,test_run,3.0.6,60.00193926137759,
10,TDF,TDF_10_brod_070319.wav,,,1,rating_d_final.csv,d,final,,,,,0,0,0,0,0,0,0,0,0,24,24,9,,,,,,6,0.736,110,001,2019_Mar_15_1110,test_run,3.0.6,60.00193926137759,
20,TTF,TTF_20_got_070319.wav,,,1,rating_d_final.csv,d,final,,,,,0,0,0,0,0,0,0,0,0,25,25,19,,,,,,4,2.37,110,001,2019_Mar_15_1110,test_run,3.0.6,60.00193926137759,
13,TDF,TDF_13_ljud_070319.wav,,,1,rating_d_final.csv,d,final,,,,,0,0,0,0,0,0,0,0,0,26,26,12,,,,,,7,0.67,110,001,2019_Mar_15_1110,test_run,3.0.6,60.00193926137759,
8,TDF,TDF_8_nod_070319.wav,,,1,rating_d_final.csv,d,final,,,,,0,0,0,0,0,0,0,0,0,27,27,7,,,,,,7,1.053,110,001,2019_Mar_15_1110,test_run,3.0.6,60.00193926137759,
11,TDF,TDF_11_svid_070319.wav,,,1,rating_d_final.csv,d,final,,,,,0,0,0,0,0,0,0,0,0,28,28,10,,,,,,5,1.537,110,001,2019_Mar_15_1110,test_run,3.0.6,60.00193926137759,
28,TTF,TTF_28_brant_070319.wav,,,1,rating_d_final.csv,d,final,,,,,0,0,0,0,0,0,0,0,0,29,29,27,,,,,,1,0.687,110,001,2019_Mar_15_1110,test_run,3.0.6,60.00193926137759,
29,TTF,TTF_29_bett_070319.wav,,,1,rating_d_final.csv,d,final,,,,,0,0,0,0,0,0,0,0,0,30,30,28,,,,,,1,0.736,110,001,2019_Mar_15_1110,test_run,3.0.6,60.00193926137759,
9,TDF,TDF_9_bod_070319.wav,,,1,rating_d_final.csv,d,final,,,,,0,0,0,0,0,0,0,0,0,31,31,8,,,,,,3,0.587,110,001,2019_Mar_15_1110,test_run,3.0.6,60.00193926137759,
28,TDF,TDF_28_brand_070319.wav,,,1,rating_t_final.csv,t,final,,,,,0,0,0,0,0,1,1,1,0,0,0,27,,,,,,1,1.303,110,001,2019_Mar_15_1110,test_run,3.0.6,60.00193926137759,
32,TDF,TDF_32_hoard_070319.wav,,,1,rating_t_final.csv,t,final,,,,,0,0,0,0,0,1,1,1,0,1,1,31,,,,,,1,0.803,110,001,2019_Mar_15_1110,test_run,3.0.6,60.00193926137759,
31,TDF,TDF_31_brodd_070319.wav,,,1,rating_t_final.csv,t,final,,,,,0,0,0,0,0,1,1,1,0,2,2,30,,,,,,1,0.803,110,001,2019_Mar_15_1110,test_run,3.0.6,60.00193926137759,
13,TTF,TTF_13_gjut_070319.wav,,,1,rating_t_final.csv,t,final,,,,,0,0,0,0,0,1,1,1,0,3,3,12,,,,,,6,2.603,110,001,2019_Mar_15_1110,test_run,3.0.6,60.00193926137759,
10,TTF,TTF_10_broet_070319.wav,,,1,rating_t_final.csv,t,final,,,,,0,0,0,0,0,1,1,1,0,4,4,9,,,,,,7,0.787,110,001,2019_Mar_15_1110,test_run,3.0.6,60.00193926137759,
6,TTF,TTF_6_voart_070319.wav,,,1,rating_t_final.csv,t,final,,,,,0,0,0,0,0,1,1,1,0,5,5,5,,,,,,5,2.97,110,001,2019_Mar_15_1110,test_run,3.0.6,60.00193926137759,
29,TDF,TDF_29_baadd_070319.wav,,,1,rating_t_final.csv,t,final,,,,,0,0,0,0,0,1,1,1,0,6,6,28,,,,,,2,4.57,110,001,2019_Mar_15_1110,test_run,3.0.6,60.00193926137759,
22,TDF,TDF_22_hed_070319.wav,,,1,rating_t_final.csv,t,final,,,,,0,0,0,0,0,1,1,1,0,7,7,21,,,,,,1,0.669,110,001,2019_Mar_15_1110,test_run,3.0.6,60.00193926137759,
3,TTF,TTF_3_raat_070319.wav,,,1,rating_t_final.csv,t,final,,,,,0,0,0,0,0,1,1,1,0,8,8,2,,,,,,7,0.62,110,001,2019_Mar_15_1110,test_run,3.0.6,60.00193926137759,
30,TDF,TDF_30_sladd_070319.wav,,,1,rating_t_final.csv,t,final,,,,,0,0,0,0,0,1,1,1,0,9,9,29,,,,,,1,0.619,110,001,2019_Mar_15_1110,test_run,3.0.6,60.00193926137759,
15,TTF,TTF_15_not_070319.wav,,,1,rating_t_final.csv,t,final,,,,,0,0,0,0,0,1,1,1,0,10,10,14,,,,,,7,3.219,110,001,2019_Mar_15_1110,test_run,3.0.6,60.00193926137759,
11,TTF,TTF_11_svit_070319.wav,,,1,rating_t_final.csv,t,final,,,,,0,0,0,0,0,1,1,1,0,11,11,10,,,,,,7,1.787,110,001,2019_Mar_15_1110,test_run,3.0.6,60.00193926137759,
24,TDF,TDF_24_smid_070319.wav,,,1,rating_t_final.csv,t,final,,,,,0,0,0,0,0,1,1,1,0,12,12,23,,,,,,1,0.703,110,001,2019_Mar_15_1110,test_run,3.0.6,60.00193926137759,
1,TTF,TTF_1_rit_070319.wav,,,1,rating_t_final.csv,t,final,,,,,0,0,0,0,0,1,1,1,0,13,13,0,,,,,,7,0.586,110,001,2019_Mar_15_1110,test_run,3.0.6,60.00193926137759,
5,TTF,TTF_5_voat_070319.wav,,,1,rating_t_final.csv,t,final,,,,,0,0,0,0,0,1,1,1,0,14,14,4,,,,,,7,0.72,110,001,2019_Mar_15_1110,test_run,3.0.6,60.00193926137759,
27,TDF,TDF_27_sand_070319.wav,,,1,rating_t_final.csv,t,final,,,,,0,0,0,0,0,1,1,1,0,15,15,26,,,,,,1,1.203,110,001,2019_Mar_15_1110,test_run,3.0.6,60.00193926137759,
23,TDF,TDF_23_hud_070319.wav,,,1,rating_t_final.csv,t,final,,,,,0,0,0,0,0,1,1,1,0,16,16,22,,,,,,1,1.07,110,001,2019_Mar_15_1110,test_run,3.0.6,60.00193926137759,
25,TDF,TDF_25_synd_070319.wav,,,1,rating_t_final.csv,t,final,,,,,0,0,0,0,0,1,1,1,0,17,17,24,,,,,,1,1.92,110,001,2019_Mar_15_1110,test_run,3.0.6,60.00193926137759,
21,TDF,TDF_21_ljod _070319.wav,,,1,rating_t_final.csv,t,final,,,,,0,0,0,0,0,1,1,1,0,18,18,20,,,,,,1,2.77,110,001,2019_Mar_15_1110,test_run,3.0.6,60.00193926137759,
16,TTF,TTF_16_font_070319.wav,,,1,rating_t_final.csv,t,final,,,,,0,0,0,0,0,1,1,1,0,19,19,15,,,,,,6,0.703,110,001,2019_Mar_15_1110,test_run,3.0.6,60.00193926137759,
9,TTF,TTF_9_bot_070319.wav,,,1,rating_t_final.csv,t,final,,,,,0,0,0,0,0,1,1,1,0,20,20,8,,,,,,3,3.453,110,001,2019_Mar_15_1110,test_run,3.0.6,60.00193926137759,
19,TDF,TDF_19_sjod_070319.wav,,,1,rating_t_final.csv,t,final,,,,,0,0,0,0,0,1,1,1,0,21,21,18,,,,,,1,1.07,110,001,2019_Mar_15_1110,test_run,3.0.6,60.00193926137759,
8,TTF,TTF_8_noet_070319.wav,,,1,rating_t_final.csv,t,final,,,,,0,0,0,0,0,1,1,1,0,22,22,7,,,,,,5,1.604,110,001,2019_Mar_15_1110,test_run,3.0.6,60.00193926137759,
2,TTF,TTF_2_vet_070319.wav,,,1,rating_t_final.csv,t,final,,,,,0,0,0,0,0,1,1,1,0,23,23,1,,,,,,5,1.037,110,001,2019_Mar_15_1110,test_run,3.0.6,60.00193926137759,
12,TTF,TTF_12_smet_070319.wav,,,1,rating_t_final.csv,t,final,,,,,0,0,0,0,0,1,1,1,0,24,24,11,,,,,,7,0.603,110,001,2019_Mar_15_1110,test_run,3.0.6,60.00193926137759,
18,TDF,TDF_18_sjud_070319.wav,,,1,rating_t_final.csv,t,final,,,,,0,0,0,0,0,1,1,1,0,25,25,17,,,,,,2,0.77,110,001,2019_Mar_15_1110,test_run,3.0.6,60.00193926137759,
20,TDF,TDF_20_god_070319.wav,,,1,rating_t_final.csv,t,final,,,,,0,0,0,0,0,1,1,1,0,26,26,19,,,,,,1,0.437,110,001,2019_Mar_15_1110,test_run,3.0.6,60.00193926137759,
4,TTF,TTF_4_roet_070319.wav,,,1,rating_t_final.csv,t,final,,,,,0,0,0,0,0,1,1,1,0,27,27,3,,,,,,6,0.553,110,001,2019_Mar_15_1110,test_run,3.0.6,60.00193926137759,
17,TDF,TDF_17_sked_070319.wav,,,1,rating_t_final.csv,t,final,,,,,0,0,0,0,0,1,1,1,0,28,28,16,,,,,,1,0.554,110,001,2019_Mar_15_1110,test_run,3.0.6,60.00193926137759,
7,TTF,TTF_7_vit_070319.wav,,,1,rating_t_final.csv,t,final,,,,,0,0,0,0,0,1,1,1,0,29,29,6,,,,,,6,0.587,110,001,2019_Mar_15_1110,test_run,3.0.6,60.00193926137759,
14,TTF,TTF_14_mot_070319.wav,,,1,rating_t_final.csv,t,final,,,,,0,0,0,0,0,1,1,1,0,30,30,13,,,,,,7,0.754,110,001,2019_Mar_15_1110,test_run,3.0.6,60.00193926137759,
26,TDF,TDF_26_rymd_070319.wav,,,1,rating_t_final.csv,t,final,,,,,0,0,0,0,0,1,1,1,0,31,31,25,,,,,,1,0.604,110,001,2019_Mar_15_1110,test_run,3.0.6,60.00193926137759,
20,TTI,TTI_20_tur_150219.wav,,,2,rating_d_initial.csv,d,initial,,,,,0,1,1,1,0,0,0,0,0,0,0,19,,,,,,3,3.77,110,001,2019_Mar_15_1110,test_run,3.0.6,60.00193926137759,
11,TDI,TDI_11_dipp_150219.wav,,,2,rating_d_initial.csv,d,initial,,,,,0,1,1,1,0,0,0,0,0,1,1,10,,,,,,5,0.903,110,001,2019_Mar_15_1110,test_run,3.0.6,60.00193926137759,
16,TTI,TTI_16_ton_150219.wav,,,2,rating_d_initial.csv,d,initial,,,,,0,1,1,1,0,0,0,0,0,2,2,15,,,,,,1,4.137,110,001,2019_Mar_15_1110,test_run,3.0.6,60.00193926137759,
25,TTI,TTI_25_taar_150219.wav,,,2,rating_d_initial.csv,d,initial,,,,,0,1,1,1,0,0,0,0,0,3,3,24,,,,,,2,1.403,110,001,2019_Mar_15_1110,test_run,3.0.6,60.00193926137759,
14,TDI,TDI_14_dok_150219.wav,,,2,rating_d_initial.csv,d,initial,,,,,0,1,1,1,0,0,0,0,0,4,4,13,,,,,,5,2.469,110,001,2019_Mar_15_1110,test_run,3.0.6,60.00193926137759,
7,TDI,TDI_7_den_150219.wav,,,2,rating_d_initial.csv,d,initial,,,,,0,1,1,1,0,0,0,0,0,5,5,6,,,,,,7,0.619,110,001,2019_Mar_15_1110,test_run,3.0.6,60.00193926137759,
18,TTI,TTI_18_tum_150219.wav,,,2,rating_d_initial.csv,d,initial,,,,,0,1,1,1,0,0,0,0,0,6,6,17,,,,,,4,2.32,110,001,2019_Mar_15_1110,test_run,3.0.6,60.00193926137759,
9,TDI,TDI_9_dill_150219.wav,,,2,rating_d_initial.csv,d,initial,,,,,0,1,1,1,0,0,0,0,0,7,7,8,,,,,,7,0.704,110,001,2019_Mar_15_1110,test_run,3.0.6,60.00193926137759,
4,TDI,TDI_4_dam_150219.wav,,,2,rating_d_initial.csv,d,initial,,,,,0,1,1,1,0,0,0,0,0,8,8,3,,,,,,7,0.637,110,001,2019_Mar_15_1110,test_run,3.0.6,60.00193926137759,
8,TDI,TDI_8_dia_150219.wav,,,2,rating_d_initial.csv,d,initial,,,,,0,1,1,1,0,0,0,0,0,9,9,7,,,,,,7,0.87,110,001,2019_Mar_15_1110,test_run,3.0.6,60.00193926137759,
12,TDI,TDI_12_doa_150219.wav,,,2,rating_d_initial.csv,d,initial,,,,,0,1,1,1,0,0,0,0,0,10,10,11,,,,,,7,0.67,110,001,2019_Mar_15_1110,test_run,3.0.6,60.00193926137759,
23,TTI,TTI_23_toa_150219.wav,,,2,rating_d_initial.csv,d,initial,,,,,0,1,1,1,0,0,0,0,0,11,11,22,,,,,,3,1.521,110,001,2019_Mar_15_1110,test_run,3.0.6,60.00193926137759,
24,TTI,TTI_24_taack_150219.wav,,,2,rating_d_initial.csv,d,initial,,,,,0,1,1,1,0,0,0,0,0,12,12,23,,,,,,2,1.654,110,001,2019_Mar_15_1110,test_run,3.0.6,60.00193926137759,
19,TTI,TTI_19_tun_150219.wav,,,2,rating_d_initial.csv,d,initial,,,,,0,1,1,1,0,0,0,0,0,13,13,18,,,,,,1,0.603,110,001,2019_Mar_15_1110,test_run,3.0.6,60.00193926137759,
13,TDI,TDI_13_dog_150219.wav,,,2,rating_d_initial.csv,d,initial,,,,,0,1,1,1,0,0,0,0,0,14,14,12,,,,,,5,0.62,110,001,2019_Mar_15_1110,test_run,3.0.6,60.00193926137759,
22,TTI,TTI_22_ty_150219.wav,,,2,rating_d_initial.csv,d,initial,,,,,0,1,1,1,0,0,0,0,0,15,15,21,,,,,,2,1.087,110,001,2019_Mar_15_1110,test_run,3.0.6,60.00193926137759,
17,TTI,TTI_17_topp_150219.wav,,,2,rating_d_initial.csv,d,initial,,,,,0,1,1,1,0,0,0,0,0,16,16,16,,,,,,1,0.603,110,001,2019_Mar_15_1110,test_run,3.0.6,60.00193926137759,
3,TDI,TDI_3_dal_150219.wav,,,2,rating_d_initial.csv,d,initial,,,,,0,1,1,1,0,0,0,0,0,17,17,2,,,,,,7,1.77,110,001,2019_Mar_15_1110,test_run,3.0.6,60.00193926137759,
2,TDI,TDI_2_dagg_150219.wav,,,2,rating_d_initial.csv,d,initial,,,,,0,1,1,1,0,0,0,0,0,18,18,1,,,,,,7,2.536,110,001,2019_Mar_15_1110,test_run,3.0.6,60.00193926137759,
6,TDI,TDI_6_deg_150219.wav,,,2,rating_d_initial.csv,d,initial,,,,,0,1,1,1,0,0,0,0,0,19,19,5,,,,,,7,1.47,110,001,2019_Mar_15_1110,test_run,3.0.6,60.00193926137759,
27,TTI,TTI_27_toem_150219.wav,,,2,rating_d_initial.csv,d,initial,,,,,0,1,1,1,0,0,0,0,0,20,20,26,,,,,,1,2.336,110,001,2019_Mar_15_1110,test_run,3.0.6,60.00193926137759,
10,TDI,TDI_10_ditt_150219.wav,,,2,rating_d_initial.csv,d,initial,,,,,0,1,1,1,0,0,0,0,0,21,21,9,,,,,,6,3.287,110,001,2019_Mar_15_1110,test_run,3.0.6,60.00193926137759,
21,TTI,TTI_21_tugg_150219.wav,,,2,rating_d_initial.csv,d,initial,,,,,0,1,1,1,0,0,0,0,0,22,22,20,,,,,,1,0.604,110,001,2019_Mar_15_1110,test_run,3.0.6,60.00193926137759,
15,TTI,TTI_15_tom_150219.wav,,,2,rating_d_initial.csv,d,initial,,,,,0,1,1,1,0,0,0,0,0,23,23,14,,,,,,1,0.57,110,001,2019_Mar_15_1110,test_run,3.0.6,60.00193926137759,
26,TTI,TTI_26_toe_150219.wav,,,2,rating_d_initial.csv,d,initial,,,,,0,1,1,1,0,0,0,0,0,24,24,25,,,,,,1,0.586,110,001,2019_Mar_15_1110,test_run,3.0.6,60.00193926137759,
5,TDI,TDI_5_dass_150219.wav,,,2,rating_d_initial.csv,d,initial,,,,,0,1,1,1,0,0,0,0,0,25,25,4,,,,,,7,2.136,110,001,2019_Mar_15_1110,test_run,3.0.6,60.00193926137759,
1,TDI,TDI_1_dag_150219.wav,,,2,rating_d_initial.csv,d,initial,,,,,0,1,1,1,0,0,0,0,0,26,26,0,,,,,,7,0.67,110,001,2019_Mar_15_1110,test_run,3.0.6,60.00193926137759,
13,TTI,TTI_13_tog_150219.wav,,,2,rating_t_initial.csv,t,initial,,,,,0,1,1,1,0,1,1,1,0,0,0,12,,,,,,5,2.087,110,001,2019_Mar_15_1110,test_run,3.0.6,60.00193926137759,
3,TTI,TTI_3_tal_150219.wav,,,2,rating_t_initial.csv,t,initial,,,,,0,1,1,1,0,1,1,1,0,1,1,2,,,,,,4,0.753,110,001,2019_Mar_15_1110,test_run,3.0.6,60.00193926137759,
26,TDI,TDI_26_doe_150219.wav,,,2,rating_t_initial.csv,t,initial,,,,,0,1,1,1,0,1,1,1,0,2,2,25,,,,,,1,0.536,110,001,2019_Mar_15_1110,test_run,3.0.6,60.00193926137759,
10,TTI,TTI_10_titt_150219.wav,,,2,rating_t_initial.csv,t,initial,,,,,0,1,1,1,0,1,1,1,0,3,3,9,,,,,,1,0.62,110,001,2019_Mar_15_1110,test_run,3.0.6,60.00193926137759,
5,TTI,TTI_5_tass_150219.wav,,,2,rating_t_initial.csv,t,initial,,,,,0,1,1,1,0,1,1,1,0,4,4,4,,,,,,3,1.537,110,001,2019_Mar_15_1110,test_run,3.0.6,60.00193926137759,
25,TDI,TDI_25_daar_150219.wav,,,2,rating_t_initial.csv,t,initial,,,,,0,1,1,1,0,1,1,1,0,5,5,24,,,,,,1,0.604,110,001,2019_Mar_15_1110,test_run,3.0.6,60.00193926137759,
2,TTI,TTI_2_tagg_150219.wav,,,2,rating_t_initial.csv,t,initial,,,,,0,1,1,1,0,1,1,1,0,6,6,1,,,,,,4,2.087,110,001,2019_Mar_15_1110,test_run,3.0.6,60.00193926137759,
19,TDI,TDI_19_dun_150219.wav,,,2,rating_t_initial.csv,t,initial,,,,,0,1,1,1,0,1,1,1,0,7,7,18,,,,,,1,0.503,110,001,2019_Mar_15_1110,test_run,3.0.6,60.00193926137759,
6,TTI,TTI_6_teg_150219.wav,,,2,rating_t_initial.csv,t,initial,,,,,0,1,1,1,0,1,1,1,0,8,8,5,,,,,,5,3.103,110,001,2019_Mar_15_1110,test_run,3.0.6,60.00193926137759,
22,TDI,TDI_22_dy_150219.wav,,,2,rating_t_initial.csv,t,initial,,,,,0,1,1,1,0,1,1,1,0,9,9,21,,,,,,1,0.854,110,001,2019_Mar_15_1110,test_run,3.0.6,60.00193926137759,
8,TTI,TTI_8_tia_150219.wav,,,2,rating_t_initial.csv,t,initial,,,,,0,1,1,1,0,1,1,1,0,10,10,7,,,,,,7,0.571,110,001,2019_Mar_15_1110,test_run,3.0.6,60.00193926137759,
1,TTI,TTI_1_tag_150219.wav,,,2,rating_t_initial.csv,t,initial,,,,,0,1,1,1,0,1,1,1,0,11,11,0,,,,,,6,0.487,110,001,2019_Mar_15_1110,test_run,3.0.6,60.00193926137759,
27,TDI,TDI_27_doem_edit_150219.wav,,,2,rating_t_initial.csv,t,initial,,,,,0,1,1,1,0,1,1,1,0,12,12,26,,,,,,1,0.537,110,001,2019_Mar_15_1110,test_run,3.0.6,60.00193926137759,
20,TDI,TDI_20_dur_150219.wav,,,2,rating_t_initial.csv,t,initial,,,,,0,1,1,1,0,1,1,1,0,13,13,19,,,,,,1,0.537,110,001,2019_Mar_15_1110,test_run,3.0.6,60.00193926137759,
24,TDI,TDI_24_daack_150219.wav,,,2,rating_t_initial.csv,t,initial,,,,,0,1,1,1,0,1,1,1,0,14,14,23,,,,,,1,0.554,110,001,2019_Mar_15_1110,test_run,3.0.6,60.00193926137759,
11,TTI,TTI_11_tipp_150219.wav,,,2,rating_t_initial.csv,t,initial,,,,,0,1,1,1,0,1,1,1,0,15,15,10,,,,,,5,0.536,110,001,2019_Mar_15_1110,test_run,3.0.6,60.00193926137759,
18,TDI,TDI_18_dum_150219.wav,,,2,rating_t_initial.csv,t,initial,,,,,0,1,1,1,0,1,1,1,0,16,16,17,,,,,,1,0.703,110,001,2019_Mar_15_1110,test_run,3.0.6,60.00193926137759,
15,TDI,TDI_15_dom_150219.wav,,,2,rating_t_initial.csv,t,initial,,,,,0,1,1,1,0,1,1,1,0,17,17,14,,,,,,1,0.421,110,001,2019_Mar_15_1110,test_run,3.0.6,60.00193926137759,
23,TDI,TDI_23_doa_150219.wav,,,2,rating_t_initial.csv,t,initial,,,,,0,1,1,1,0,1,1,1,0,18,18,22,,,,,,1,0.537,110,001,2019_Mar_15_1110,test_run,3.0.6,60.00193926137759,
17,TDI,TDI_17_dopp_150219.wav,,,2,rating_t_initial.csv,t,initial,,,,,0,1,1,1,0,1,1,1,0,19,19,16,,,,,,1,0.469,110,001,2019_Mar_15_1110,test_run,3.0.6,60.00193926137759,
4,TTI,TTI_4_tam_150219.wav,,,2,rating_t_initial.csv,t,initial,,,,,0,1,1,1,0,1,1,1,0,20,20,3,,,,,,3,0.737,110,001,2019_Mar_15_1110,test_run,3.0.6,60.00193926137759,
21,TDI,TDI_21_dugg_150219.wav,,,2,rating_t_initial.csv,t,initial,,,,,0,1,1,1,0,1,1,1,0,21,21,20,,,,,,1,0.686,110,001,2019_Mar_15_1110,test_run,3.0.6,60.00193926137759,
16,TDI,TDI_16_don_150219.wav,,,2,rating_t_initial.csv,t,initial,,,,,0,1,1,1,0,1,1,1,0,22,22,15,,,,,,1,0.537,110,001,2019_Mar_15_1110,test_run,3.0.6,60.00193926137759,
9,TTI,TTI_9_till_150219.wav,,,2,rating_t_initial.csv,t,initial,,,,,0,1,1,1,0,1,1,1,0,23,23,8,,,,,,5,0.887,110,001,2019_Mar_15_1110,test_run,3.0.6,60.00193926137759,
7,TTI,TTI_7_tenn_150219.wav,,,2,rating_t_initial.csv,t,initial,,,,,0,1,1,1,0,1,1,1,0,24,24,6,,,,,,5,0.887,110,001,2019_Mar_15_1110,test_run,3.0.6,60.00193926137759,
12,TTI,TTI_12_toa_150219.wav,,,2,rating_t_initial.csv,t,initial,,,,,0,1,1,1,0,1,1,1,0,25,25,11,,,,,,5,4.987,110,001,2019_Mar_15_1110,test_run,3.0.6,60.00193926137759,
14,TTI,TTI_14_tok_150219.wav,,,2,rating_t_initial.csv,t,initial,,,,,0,1,1,1,0,1,1,1,0,26,26,13,,,,,,7,1.287,110,001,2019_Mar_15_1110,test_run,3.0.6,60.00193926137759,
