item,item_cond,sound,corr_ans,group,block_id,listname,rating_for,position,trials.thisRepN,trials.thisTrialN,trials.thisN,trials.thisIndex,run_block_type.thisRepN,run_block_type.thisTrialN,run_block_type.thisN,run_block_type.thisIndex,routine.thisRepN,routine.thisTrialN,routine.thisN,routine.thisIndex,rating_trials.thisRepN,rating_trials.thisTrialN,rating_trials.thisN,rating_trials.thisIndex,key_resp_1.keys,key_resp_1.rt,key_resp_2.keys,key_resp_2.corr,key_resp_2.rt,rating_1.response,rating_1.rt,participant,session,date,expName,psychopyVersion,frameRate,
,,,,,,,,,,,,,,,,,,,,,,,,,space,35.61937972900341,,,,,,111,001,2019_Mar_15_1412,test_run,3.0.6,60.00040452210549,
54,EFW,EFW_24_foersvinner_070319.wav,j,t,,,,,0,0,0,53,,,,,,,,,,,,,,,j,1,1.9023389689973556,,,111,001,2019_Mar_15_1412,test_run,3.0.6,60.00040452210549,
143,ENW,ENW_53_svarmvisso_150219.wav,n,t,,,,,0,1,1,142,,,,,,,,,,,,,,,n,1,0.252929841997684,,,111,001,2019_Mar_15_1412,test_run,3.0.6,60.00040452210549,
73,EFW,EFW_43_halvoar_070319.wav,j,t,,,,,0,2,2,72,,,,,,,,,,,,,,,j,1,0.48621874100354034,,,111,001,2019_Mar_15_1412,test_run,3.0.6,60.00040452210549,
114,ENW,ENW_24_samjoner_150219.wav,n,t,,,,,0,3,3,113,,,,,,,,,,,,,,,n,1,0.5021192869899096,,,111,001,2019_Mar_15_1412,test_run,3.0.6,60.00040452210549,
83,EFW,EFW_53_sovrum_070319.wav,j,t,,,,,0,4,4,82,,,,,,,,,,,,,,,j,1,9.836195519004832,,,111,001,2019_Mar_15_1412,test_run,3.0.6,60.00040452210549,
129,ENW,ENW_39_ljusonar_150219.wav,n,t,,,,,0,5,5,128,,,,,,,,,,,,,,,n,1,0.8690572609921219,,,111,001,2019_Mar_15_1412,test_run,3.0.6,60.00040452210549,
119,ENW,ENW_29_uppskira_150219.wav,n,t,,,,,0,6,6,118,,,,,,,,,,,,,,,j,0,0.8858830690005561,,,111,001,2019_Mar_15_1412,test_run,3.0.6,60.00040452210549,
60,EFW,EFW_30_officiella_070319.wav,j,t,,,,,0,7,7,59,,,,,,,,,,,,,,,j,1,0.9364013620070182,,,111,001,2019_Mar_15_1412,test_run,3.0.6,60.00040452210549,
55,EFW,EFW_25_informera_070319.wav,j,t,,,,,0,8,8,54,,,,,,,,,,,,,,,j,1,0.6670272329938598,,,111,001,2019_Mar_15_1412,test_run,3.0.6,60.00040452210549,
146,ENW,ENW_56_lysskarna_150219.wav,n,t,,,,,0,9,9,145,,,,,,,,,,,,,,,n,1,0.5522399009932997,,,111,001,2019_Mar_15_1412,test_run,3.0.6,60.00040452210549,
93,ENW,ENW_3_vissorens_150219.wav,n,t,,,,,0,10,10,92,,,,,,,,,,,,,,,n,1,0.7524992840044433,,,111,001,2019_Mar_15_1412,test_run,3.0.6,60.00040452210549,
72,EFW,EFW_42_naavaron_070319.wav,j,t,,,,,0,11,11,71,,,,,,,,,,,,,,,j,1,0.669628075993387,,,111,001,2019_Mar_15_1412,test_run,3.0.6,60.00040452210549,
117,ENW,ENW_27_lyssvinner_150219.wav,n,t,,,,,0,12,12,116,,,,,,,,,,,,,,,n,1,0.8030945400096243,,,111,001,2019_Mar_15_1412,test_run,3.0.6,60.00040452210549,
53,EFW,EFW_23_aamne_070319.wav,j,t,,,,,0,13,13,52,,,,,,,,,,,,,,,j,1,0.4191828900075052,,,111,001,2019_Mar_15_1412,test_run,3.0.6,60.00040452210549,
37,EFW,EFW_7_sociala_070319.wav,j,t,,,,,0,14,14,36,,,,,,,,,,,,,,,j,1,0.38557870899967384,,,111,001,2019_Mar_15_1412,test_run,3.0.6,60.00040452210549,
172,ENW,ENW_82_värskappa_150219.wav,n,t,,,,,0,15,15,171,,,,,,,,,,,,,,,n,1,0.6524254830001155,,,111,001,2019_Mar_15_1412,test_run,3.0.6,60.00040452210549,
122,ENW,ENW_32_fonering_150219.wav,n,t,,,,,0,16,16,121,,,,,,,,,,,,,,,n,1,0.7336330209946027,,,111,001,2019_Mar_15_1412,test_run,3.0.6,60.00040452210549,
180,ENW,ENW_90_skrivinar_150219.wav,n,t,,,,,0,17,17,179,,,,,,,,,,,,,,,n,1,0.5855788059998304,,,111,001,2019_Mar_15_1412,test_run,3.0.6,60.00040452210549,
130,ENW,ENW_40_knipackar_150219.wav,n,t,,,,,0,18,18,129,,,,,,,,,,,,,,,n,1,0.553099647993804,,,111,001,2019_Mar_15_1412,test_run,3.0.6,60.00040452210549,
173,ENW,ENW_83_fyrskovar_150219.wav,n,t,,,,,0,19,19,172,,,,,,,,,,,,,,,n,1,0.5196414910024032,,,111,001,2019_Mar_15_1412,test_run,3.0.6,60.00040452210549,
103,ENW,ENW_13_forvaron_150219.wav,n,t,,,,,0,20,20,102,,,,,,,,,,,,,,,j,0,0.6030333739909111,,,111,001,2019_Mar_15_1412,test_run,3.0.6,60.00040452210549,
7,ETW,ETW_7_hemland_070319.wav,j,t,,,,,0,21,21,6,,,,,,,,,,,,,,,j,1,0.7190384120040108,,,111,001,2019_Mar_15_1412,test_run,3.0.6,60.00040452210549,
23,ETW,ETW_23_promenad_070319.wav,j,t,,,,,0,22,22,22,,,,,,,,,,,,,,,j,1,0.2532869760034373,,,111,001,2019_Mar_15_1412,test_run,3.0.6,60.00040452210549,
94,ENW,ENW_4_kyllfaren_150219.wav,n,t,,,,,0,23,23,93,,,,,,,,,,,,,,,n,1,0.6026632620050805,,,111,001,2019_Mar_15_1412,test_run,3.0.6,60.00040452210549,
58,EFW,EFW_28_olja_070319.wav,j,t,,,,,0,24,24,57,,,,,,,,,,,,,,,j,1,0.5358502960007172,,,111,001,2019_Mar_15_1412,test_run,3.0.6,60.00040452210549,
20,ETW,ETW_20_loppmarknad_070319.wav,j,t,,,,,0,25,25,19,,,,,,,,,,,,,,,j,1,0.5024128720106091,,,111,001,2019_Mar_15_1412,test_run,3.0.6,60.00040452210549,
47,EFW,EFW_17_januari_070319.wav,j,t,,,,,0,26,26,46,,,,,,,,,,,,,,,j,1,0.3524078320042463,,,111,001,2019_Mar_15_1412,test_run,3.0.6,60.00040452210549,
175,ENW,ENW_85_forlinna_150219.wav,n,t,,,,,0,27,27,174,,,,,,,,,,,,,,,n,1,0.3193259859981481,,,111,001,2019_Mar_15_1412,test_run,3.0.6,60.00040452210549,
108,ENW,ENW_18_moalursena_150219.wav,n,t,,,,,0,28,28,107,,,,,,,,,,,,,,,n,1,4.402852236991748,,,111,001,2019_Mar_15_1412,test_run,3.0.6,60.00040452210549,
40,EFW,EFW_10_laarare_070319.wav,j,t,,,,,0,29,29,39,,,,,,,,,,,,,,,j,1,0.6863657689973479,,,111,001,2019_Mar_15_1412,test_run,3.0.6,60.00040452210549,
147,ENW,ENW_57_flovanning_150219.wav,n,t,,,,,0,30,30,146,,,,,,,,,,,,,,,n,1,0.35232485400047153,,,111,001,2019_Mar_15_1412,test_run,3.0.6,60.00040452210549,
22,ETW,ETW_22_sinnesfrid_070319.wav,j,t,,,,,0,31,31,21,,,,,,,,,,,,,,,j,1,1.5361820870020892,,,111,001,2019_Mar_15_1412,test_run,3.0.6,60.00040452210549,
156,ENW,ENW_66_voarsmenar_150219.wav,n,t,,,,,0,32,32,155,,,,,,,,,,,,,,,n,1,0.33561768900835887,,,111,001,2019_Mar_15_1412,test_run,3.0.6,60.00040452210549,
124,ENW,ENW_34_jomera_150219.wav,n,t,,,,,0,33,33,123,,,,,,,,,,,,,,,n,1,0.9192904500087025,,,111,001,2019_Mar_15_1412,test_run,3.0.6,60.00040452210549,
100,ENW,ENW_10_skinnamer_150219.wav,n,t,,,,,0,34,34,99,,,,,,,,,,,,,,,n,1,0.20236460999876726,,,111,001,2019_Mar_15_1412,test_run,3.0.6,60.00040452210549,
56,EFW,EFW_26_armarna_070319.wav,j,t,,,,,0,35,35,55,,,,,,,,,,,,,,,j,1,0.3190385259949835,,,111,001,2019_Mar_15_1412,test_run,3.0.6,60.00040452210549,
161,ENW,ENW_71_forskäckla_150219.wav,n,t,,,,,0,36,36,160,,,,,,,,,,,,,,,n,1,0.21942479400604498,,,111,001,2019_Mar_15_1412,test_run,3.0.6,60.00040452210549,
125,ENW,ENW_35_nymaljen_150219.wav,n,t,,,,,0,37,37,124,,,,,,,,,,,,,,,n,1,0.6527032989979489,,,111,001,2019_Mar_15_1412,test_run,3.0.6,60.00040452210549,
106,ENW,ENW_16_rolinkar_150219.wav,n,t,,,,,0,38,38,105,,,,,,,,,,,,,,,n,1,0.33574131201021373,,,111,001,2019_Mar_15_1412,test_run,3.0.6,60.00040452210549,
148,ENW,ENW_58_malvossa_150219.wav,n,t,,,,,0,39,39,147,,,,,,,,,,,,,,,n,1,0.30280681799922604,,,111,001,2019_Mar_15_1412,test_run,3.0.6,60.00040452210549,
120,ENW,ENW_30_sojera_150219.wav,n,t,,,,,0,40,40,119,,,,,,,,,,,,,,,n,1,0.6188737990014488,,,111,001,2019_Mar_15_1412,test_run,3.0.6,60.00040452210549,
91,ENW,ENW_1_norsimerar_150219.wav,n,t,,,,,0,41,41,90,,,,,,,,,,,,,,,n,1,1.585216263003531,,,111,001,2019_Mar_15_1412,test_run,3.0.6,60.00040452210549,
68,EFW,EFW_38_foerefoell_070319.wav,j,t,,,,,0,42,42,67,,,,,,,,,,,,,,,j,1,0.2020326700003352,,,111,001,2019_Mar_15_1412,test_run,3.0.6,60.00040452210549,
168,ENW,ENW_78_morvinder_150219.wav,n,t,,,,,0,43,43,167,,,,,,,,,,,,,,,n,1,0.3525054070050828,,,111,001,2019_Mar_15_1412,test_run,3.0.6,60.00040452210549,
121,ENW,ENW_31_romation_150219.wav,n,t,,,,,0,44,44,120,,,,,,,,,,,,,,,n,1,0.002915784003562294,,,111,001,2019_Mar_15_1412,test_run,3.0.6,60.00040452210549,
34,EFW,EFW_4_foerminska_070319.wav,j,t,,,,,0,45,45,33,,,,,,,,,,,,,,,j,1,0.3021462220058311,,,111,001,2019_Mar_15_1412,test_run,3.0.6,60.00040452210549,
66,EFW,EFW_36_haarifroan_070319.wav,j,t,,,,,0,46,46,65,,,,,,,,,,,,,,,j,1,0.1862300359935034,,,111,001,2019_Mar_15_1412,test_run,3.0.6,60.00040452210549,
9,ETW,ETW_9_haarmed_070319.wav,j,t,,,,,0,47,47,8,,,,,,,,,,,,,,,j,1,3.235370664988295,,,111,001,2019_Mar_15_1412,test_run,3.0.6,60.00040452210549,
2,ETW,ETW_2_skillnad_070319.wav,j,t,,,,,0,48,48,1,,,,,,,,,,,,,,,n,0,1.285802063997835,,,111,001,2019_Mar_15_1412,test_run,3.0.6,60.00040452210549,
99,ENW,ENW_9_samlemor_150219.wav,n,t,,,,,0,49,49,98,,,,,,,,,,,,,,,n,1,0.45246899100311566,,,111,001,2019_Mar_15_1412,test_run,3.0.6,60.00040452210549,
88,EFW,EFW_58_examen_070319.wav,j,t,,,,,0,50,50,87,,,,,,,,,,,,,,,j,1,0.3669608810014324,,,111,001,2019_Mar_15_1412,test_run,3.0.6,60.00040452210549,
3,ETW,ETW_3_choklad_070319.wav,j,t,,,,,0,51,51,2,,,,,,,,,,,,,,,j,1,0.11899023399746511,,,111,001,2019_Mar_15_1412,test_run,3.0.6,60.00040452210549,
28,ETW,ETW_28_kommunalroad_070319.wav,j,t,,,,,0,52,52,27,,,,,,,,,,,,,,,j,1,0.3029551539948443,,,111,001,2019_Mar_15_1412,test_run,3.0.6,60.00040452210549,
33,EFW,EFW_3_familjen_070319.wav,j,t,,,,,0,53,53,32,,,,,,,,,,,,,,,j,1,2.152874357998371,,,111,001,2019_Mar_15_1412,test_run,3.0.6,60.00040452210549,
30,ETW,ETW_30_oeverlevnad_070319.wav,j,t,,,,,0,54,54,29,,,,,,,,,,,,,,,j,1,0.7529235060064821,,,111,001,2019_Mar_15_1412,test_run,3.0.6,60.00040452210549,
151,ENW,ENW_61_myckskina_150219.wav,n,t,,,,,0,55,55,150,,,,,,,,,,,,,,,n,1,1.0688216970011126,,,111,001,2019_Mar_15_1412,test_run,3.0.6,60.00040452210549,
12,ETW,ETW_12_offerlund_070319.wav,j,t,,,,,0,56,56,11,,,,,,,,,,,,,,,n,0,0.43577839800855145,,,111,001,2019_Mar_15_1412,test_run,3.0.6,60.00040452210549,
42,EFW,EFW_12_foeremoal_070319.wav,j,t,,,,,0,57,57,41,,,,,,,,,,,,,,,j,1,0.4690116929996293,,,111,001,2019_Mar_15_1412,test_run,3.0.6,60.00040452210549,
160,ENW,ENW_70_roklarner_150219.wav,n,t,,,,,0,58,58,159,,,,,,,,,,,,,,,n,1,0.5858724660065491,,,111,001,2019_Mar_15_1412,test_run,3.0.6,60.00040452210549,
19,ETW,ETW_19_saallskapshund_070319.wav,j,t,,,,,0,59,59,18,,,,,,,,,,,,,,,j,1,0.7523948989983182,,,111,001,2019_Mar_15_1412,test_run,3.0.6,60.00040452210549,
52,EFW,EFW_22_normala_070319.wav,j,t,,,,,0,60,60,51,,,,,,,,,,,,,,,j,1,0.6025151560024824,,,111,001,2019_Mar_15_1412,test_run,3.0.6,60.00040452210549,
128,ENW,ENW_38_roakanier_150219.wav,n,t,,,,,0,61,61,127,,,,,,,,,,,,,,,n,1,0.5188481579971267,,,111,001,2019_Mar_15_1412,test_run,3.0.6,60.00040452210549,
25,ETW,ETW_25_mikrosekund_070319.wav,j,t,,,,,0,62,62,24,,,,,,,,,,,,,,,j,1,0.45263902300212067,,,111,001,2019_Mar_15_1412,test_run,3.0.6,60.00040452210549,
96,ENW,ENW_6_vilfroaser_150219.wav,n,t,,,,,0,63,63,95,,,,,,,,,,,,,,,n,1,0.552239153010305,,,111,001,2019_Mar_15_1412,test_run,3.0.6,60.00040452210549,
16,ETW,ETW_16_episod_070319.wav,j,t,,,,,0,64,64,15,,,,,,,,,,,,,,,j,1,0.43545815300603863,,,111,001,2019_Mar_15_1412,test_run,3.0.6,60.00040452210549,
141,ENW,ENW_51_skillare_150219.wav,n,t,,,,,0,65,65,140,,,,,,,,,,,,,,,n,1,2.8028701719886158,,,111,001,2019_Mar_15_1412,test_run,3.0.6,60.00040452210549,
150,ENW,ENW_60_lackpenar_150219.wav,n,t,,,,,0,66,66,149,,,,,,,,,,,,,,,n,1,0.43524551700102165,,,111,001,2019_Mar_15_1412,test_run,3.0.6,60.00040452210549,
105,ENW,ENW_15_forfeckla_150219.wav,n,t,,,,,0,67,67,104,,,,,,,,,,,,,,,n,1,0.4192187449953053,,,111,001,2019_Mar_15_1412,test_run,3.0.6,60.00040452210549,
10,ETW,ETW_10_nomad_070319.wav,j,t,,,,,0,68,68,9,,,,,,,,,,,,,,,j,1,2.6690085739974165,,,111,001,2019_Mar_15_1412,test_run,3.0.6,60.00040452210549,
21,ETW,ETW_21_marmelad_070319.wav,j,t,,,,,0,69,69,20,,,,,,,,,,,,,,,j,1,0.35220302500238176,,,111,001,2019_Mar_15_1412,test_run,3.0.6,60.00040452210549,
164,ENW,ENW_74_malsera_150219.wav,n,t,,,,,0,70,70,163,,,,,,,,,,,,,,,n,1,0.25209331601217855,,,111,001,2019_Mar_15_1412,test_run,3.0.6,60.00040452210549,
158,ENW,ENW_68_presionar_150219.wav,n,t,,,,,0,71,71,157,,,,,,,,,,,,,,,n,1,0.7194824260077439,,,111,001,2019_Mar_15_1412,test_run,3.0.6,60.00040452210549,
31,EFW,EFW_1_allmaan_070319.wav,j,t,,,,,0,72,72,30,,,,,,,,,,,,,,,j,1,0.11968713000533171,,,111,001,2019_Mar_15_1412,test_run,3.0.6,60.00040452210549,
112,ENW,ENW_22_fjäserna_150219.wav,n,t,,,,,0,73,73,111,,,,,,,,,,,,,,,n,1,1.833953676992678,,,111,001,2019_Mar_15_1412,test_run,3.0.6,60.00040452210549,
45,EFW,EFW_15_oeverens_070319.wav,j,t,,,,,0,74,74,44,,,,,,,,,,,,,,,j,1,0.5034251079923706,,,111,001,2019_Mar_15_1412,test_run,3.0.6,60.00040452210549,
14,ETW,ETW_14_myriad_070319.wav,j,t,,,,,0,75,75,13,,,,,,,,,,,,,,,j,1,0.4526898889889708,,,111,001,2019_Mar_15_1412,test_run,3.0.6,60.00040452210549,
142,ENW,ENW_52_filofyll_150219.wav,n,t,,,,,0,76,76,141,,,,,,,,,,,,,,,n,1,0.6364762510056607,,,111,001,2019_Mar_15_1412,test_run,3.0.6,60.00040452210549,
104,ENW,ENW_14_kärmenor_150219.wav,n,t,,,,,0,77,77,103,,,,,,,,,,,,,,,n,1,0.6855720999883488,,,111,001,2019_Mar_15_1412,test_run,3.0.6,60.00040452210549,
1,ETW,ETW_1_oskuld_070319.wav,j,t,,,,,0,78,78,0,,,,,,,,,,,,,,,j,1,0.4529558370122686,,,111,001,2019_Mar_15_1412,test_run,3.0.6,60.00040452210549,
62,EFW,EFW_32_fyller_070319.wav,j,t,,,,,0,79,79,61,,,,,,,,,,,,,,,j,1,1.1027906480012462,,,111,001,2019_Mar_15_1412,test_run,3.0.6,60.00040452210549,
81,EFW,EFW_51_seminarier_070319.wav,j,t,,,,,0,80,80,80,,,,,,,,,,,,,,,j,1,0.4528145999938715,,,111,001,2019_Mar_15_1412,test_run,3.0.6,60.00040452210549,
89,EFW,EFW_59_filosofin_070319.wav,j,t,,,,,0,81,81,88,,,,,,,,,,,,,,,j,1,0.4525461879966315,,,111,001,2019_Mar_15_1412,test_run,3.0.6,60.00040452210549,
174,ENW,ENW_84_hurmarna_150219.wav,n,t,,,,,0,82,82,173,,,,,,,,,,,,,,,n,1,0.4022806209977716,,,111,001,2019_Mar_15_1412,test_run,3.0.6,60.00040452210549,
144,ENW,ENW_54_lomering_150219.wav,n,t,,,,,0,83,83,143,,,,,,,,,,,,,,,n,1,0.5520739909989061,,,111,001,2019_Mar_15_1412,test_run,3.0.6,60.00040452210549,
116,ENW,ENW_26_anufera_150219.wav,n,t,,,,,0,84,84,115,,,,,,,,,,,,,,,n,1,0.6019427220016951,,,111,001,2019_Mar_15_1412,test_run,3.0.6,60.00040452210549,
134,ENW,ENW_44_inlivna_150219.wav,n,t,,,,,0,85,85,133,,,,,,,,,,,,,,,n,1,1.2024258260062197,,,111,001,2019_Mar_15_1412,test_run,3.0.6,60.00040452210549,
17,ETW,ETW_17_hemmavid_070319.wav,j,t,,,,,0,86,86,16,,,,,,,,,,,,,,,j,1,0.10285324300639331,,,111,001,2019_Mar_15_1412,test_run,3.0.6,60.00040452210549,
48,EFW,EFW_18_nummer_070319.wav,j,t,,,,,0,87,87,47,,,,,,,,,,,,,,,j,1,0.4172435090004001,,,111,001,2019_Mar_15_1412,test_run,3.0.6,60.00040452210549,
74,EFW,EFW_44_ljusa_070319.wav,j,t,,,,,0,88,88,73,,,,,,,,,,,,,,,j,1,0.5361865140002919,,,111,001,2019_Mar_15_1412,test_run,3.0.6,60.00040452210549,
177,ENW,ENW_87_kloavare_150219.wav,n,t,,,,,0,89,89,176,,,,,,,,,,,,,,,n,1,0.4528272830066271,,,111,001,2019_Mar_15_1412,test_run,3.0.6,60.00040452210549,
79,EFW,EFW_49_vaasen_070319.wav,j,t,,,,,0,90,90,78,,,,,,,,,,,,,,,j,1,0.3194448369904421,,,111,001,2019_Mar_15_1412,test_run,3.0.6,60.00040452210549,
63,EFW,EFW_33_elva_070319.wav,j,t,,,,,0,91,91,62,,,,,,,,,,,,,,,j,1,0.3004868419957347,,,111,001,2019_Mar_15_1412,test_run,3.0.6,60.00040452210549,
85,EFW,EFW_55_oroar_070319.wav,j,t,,,,,0,92,92,84,,,,,,,,,,,,,,,j,1,0.3026221719919704,,,111,001,2019_Mar_15_1412,test_run,3.0.6,60.00040452210549,
118,ENW,ENW_28_läkermask_150219.wav,n,t,,,,,0,93,93,117,,,,,,,,,,,,,,,n,1,0.8188379150087712,,,111,001,2019_Mar_15_1412,test_run,3.0.6,60.00040452210549,
153,ENW,ENW_63_femyrisk_150219.wav,n,t,,,,,0,94,94,152,,,,,,,,,,,,,,,n,1,0.4686127780005336,,,111,001,2019_Mar_15_1412,test_run,3.0.6,60.00040452210549,
5,ETW,ETW_5_skepnad_070319.wav,j,t,,,,,0,95,95,4,,,,,,,,,,,,,,,j,1,0.3694293009903049,,,111,001,2019_Mar_15_1412,test_run,3.0.6,60.00040452210549,
152,ENW,ENW_62_ljullepilja_150219.wav,n,t,,,,,0,96,96,151,,,,,,,,,,,,,,,n,1,0.4690841139963595,,,111,001,2019_Mar_15_1412,test_run,3.0.6,60.00040452210549,
59,EFW,EFW_29_formen_070319.wav,j,t,,,,,0,97,97,58,,,,,,,,,,,,,,,j,1,0.2858122320030816,,,111,001,2019_Mar_15_1412,test_run,3.0.6,60.00040452210549,
78,EFW,EFW_48_varifroan_070319.wav,j,t,,,,,0,98,98,77,,,,,,,,,,,,,,,j,1,0.25208628601103555,,,111,001,2019_Mar_15_1412,test_run,3.0.6,60.00040452210549,
8,ETW,ETW_8_samfund_070319.wav,j,t,,,,,0,99,99,7,,,,,,,,,,,,,,,j,1,0.35294011399673764,,,111,001,2019_Mar_15_1412,test_run,3.0.6,60.00040452210549,
127,ENW,ENW_37_spallrivet_150219.wav,n,t,,,,,0,100,100,126,,,,,,,,,,,,,,,n,1,0.3688091619987972,,,111,001,2019_Mar_15_1412,test_run,3.0.6,60.00040452210549,
36,EFW,EFW_6_massa_070319.wav,j,t,,,,,0,101,101,35,,,,,,,,,,,,,,,j,1,0.3855254700029036,,,111,001,2019_Mar_15_1412,test_run,3.0.6,60.00040452210549,
90,EFW,EFW_60_insulin_070319.wav,j,t,,,,,0,102,102,89,,,,,,,,,,,,,,,j,1,0.4029511949920561,,,111,001,2019_Mar_15_1412,test_run,3.0.6,60.00040452210549,
123,ENW,ENW_33_froamation_150219.wav,n,t,,,,,0,103,103,122,,,,,,,,,,,,,,,n,1,0.5671537180023734,,,111,001,2019_Mar_15_1412,test_run,3.0.6,60.00040452210549,
95,ENW,ENW_5_spoamisk_150219.wav,n,t,,,,,0,104,104,94,,,,,,,,,,,,,,,n,1,0.7360678089899011,,,111,001,2019_Mar_15_1412,test_run,3.0.6,60.00040452210549,
44,EFW,EFW_14_foersoeken_070319.wav,j,t,,,,,0,105,105,43,,,,,,,,,,,,,,,j,1,0.4502960450045066,,,111,001,2019_Mar_15_1412,test_run,3.0.6,60.00040452210549,
6,ETW,ETW_6_vemod_070319.wav,j,t,,,,,0,106,106,5,,,,,,,,,,,,,,,j,1,0.3364902430039365,,,111,001,2019_Mar_15_1412,test_run,3.0.6,60.00040452210549,
133,ENW,ENW_43_axalän_150219.wav,n,t,,,,,0,107,107,132,,,,,,,,,,,,,,,n,1,0.33590828398882877,,,111,001,2019_Mar_15_1412,test_run,3.0.6,60.00040452210549,
61,EFW,EFW_31_jaamfoera_070319.wav,j,t,,,,,0,108,108,60,,,,,,,,,,,,,,,j,1,0.28587243299989495,,,111,001,2019_Mar_15_1412,test_run,3.0.6,60.00040452210549,
107,ENW,ENW_17_kopynnor_150219.wav,n,t,,,,,0,109,109,106,,,,,,,,,,,,,,,n,1,0.43628667399752885,,,111,001,2019_Mar_15_1412,test_run,3.0.6,60.00040452210549,
155,ENW,ENW_65_hamfylla_150219.wav,n,t,,,,,0,110,110,154,,,,,,,,,,,,,,,n,1,0.4519416459952481,,,111,001,2019_Mar_15_1412,test_run,3.0.6,60.00040452210549,
145,ENW,ENW_55_invaskin_150219.wav,n,t,,,,,0,111,111,144,,,,,,,,,,,,,,,n,1,1.5029328539967537,,,111,001,2019_Mar_15_1412,test_run,3.0.6,60.00040452210549,
92,ENW,ENW_2_overralka_150219.wav,n,t,,,,,0,112,112,91,,,,,,,,,,,,,,,n,1,0.3027357279934222,,,111,001,2019_Mar_15_1412,test_run,3.0.6,60.00040452210549,
64,EFW,EFW_34_sommar_070319.wav,j,t,,,,,0,113,113,63,,,,,,,,,,,,,,,j,1,0.3195397609961219,,,111,001,2019_Mar_15_1412,test_run,3.0.6,60.00040452210549,
136,ENW,ENW_46_pommera_150219.wav,n,t,,,,,0,114,114,135,,,,,,,,,,,,,,,n,1,0.7358472049963893,,,111,001,2019_Mar_15_1412,test_run,3.0.6,60.00040452210549,
131,ENW,ENW_41_vessmaren_150219.wav,n,t,,,,,0,115,115,130,,,,,,,,,,,,,,,n,1,0.5005604820034932,,,111,001,2019_Mar_15_1412,test_run,3.0.6,60.00040452210549,
165,ENW,ENW_75_foarskining_150219.wav,n,t,,,,,0,116,116,164,,,,,,,,,,,,,,,n,1,0.6522428769967519,,,111,001,2019_Mar_15_1412,test_run,3.0.6,60.00040452210549,
27,ETW,ETW_27_medellivslaangd_070319.wav,j,t,,,,,0,117,117,26,,,,,,,,,,,,,,,j,1,0.8522442539979238,,,111,001,2019_Mar_15_1412,test_run,3.0.6,60.00040452210549,
154,ENW,ENW_64_havskvare_150219.wav,n,t,,,,,0,118,118,153,,,,,,,,,,,,,,,n,1,0.2523808070109226,,,111,001,2019_Mar_15_1412,test_run,3.0.6,60.00040452210549,
18,ETW,ETW_18_husfasad_070319.wav,j,t,,,,,0,119,119,17,,,,,,,,,,,,,,,j,1,0.4860045500099659,,,111,001,2019_Mar_15_1412,test_run,3.0.6,60.00040452210549,
11,ETW,ETW_11_period_070319.wav,j,t,,,,,0,120,120,10,,,,,,,,,,,,,,,j,1,0.5004734999965876,,,111,001,2019_Mar_15_1412,test_run,3.0.6,60.00040452210549,
101,ENW,ENW_11_fränna_150219.wav,n,t,,,,,0,121,121,100,,,,,,,,,,,,,,,n,1,0.45231474499450997,,,111,001,2019_Mar_15_1412,test_run,3.0.6,60.00040452210549,
163,ENW,ENW_73_vimmankalla_150219.wav,n,t,,,,,0,122,122,162,,,,,,,,,,,,,,,n,1,0.7858655710006133,,,111,001,2019_Mar_15_1412,test_run,3.0.6,60.00040452210549,
76,EFW,EFW_46_foerhoer_070319.wav,j,t,,,,,0,123,123,75,,,,,,,,,,,,,,,j,1,0.9031909539917251,,,111,001,2019_Mar_15_1412,test_run,3.0.6,60.00040452210549,
49,EFW,EFW_19_roerelse_070319.wav,j,t,,,,,0,124,124,48,,,,,,,,,,,,,,,j,1,0.30250868599978276,,,111,001,2019_Mar_15_1412,test_run,3.0.6,60.00040452210549,
50,EFW,EFW_20_fenomen_070319.wav,j,t,,,,,0,125,125,49,,,,,,,,,,,,,,,j,1,0.5527576090098592,,,111,001,2019_Mar_15_1412,test_run,3.0.6,60.00040452210549,
159,ENW,ENW_69_mjohusa_150219.wav,n,t,,,,,0,126,126,158,,,,,,,,,,,,,,,n,1,0.8523297089996049,,,111,001,2019_Mar_15_1412,test_run,3.0.6,60.00040452210549,
51,EFW,EFW_21_varierar_070319.wav,j,t,,,,,0,127,127,50,,,,,,,,,,,,,,,j,1,0.6359466340072686,,,111,001,2019_Mar_15_1412,test_run,3.0.6,60.00040452210549,
4,ETW,ETW_4_livraadd_070319.wav,j,t,,,,,0,128,128,3,,,,,,,,,,,,,,,j,1,0.5363782850035932,,,111,001,2019_Mar_15_1412,test_run,3.0.6,60.00040452210549,
138,ENW,ENW_48_skyjamsen_150219.wav,n,t,,,,,0,129,129,137,,,,,,,,,,,,,,,n,1,0.3193805429909844,,,111,001,2019_Mar_15_1412,test_run,3.0.6,60.00040452210549,
43,EFW,EFW_13_elever_070319.wav,j,t,,,,,0,130,130,42,,,,,,,,,,,,,,,j,1,0.619670750995283,,,111,001,2019_Mar_15_1412,test_run,3.0.6,60.00040452210549,
46,EFW,EFW_16_lyssna_070319.wav,j,t,,,,,0,131,131,45,,,,,,,,,,,,,,,j,1,0.7194528119871393,,,111,001,2019_Mar_15_1412,test_run,3.0.6,60.00040452210549,
140,ENW,ENW_50_omsänare_150219.wav,n,t,,,,,0,132,132,139,,,,,,,,,,,,,,,n,1,0.3357738100021379,,,111,001,2019_Mar_15_1412,test_run,3.0.6,60.00040452210549,
149,ENW,ENW_59_kyrkmänning_150219.wav,n,t,,,,,0,133,133,148,,,,,,,,,,,,,,,n,1,0.502619484992465,,,111,001,2019_Mar_15_1412,test_run,3.0.6,60.00040452210549,
39,EFW,EFW_9_infektion_070319.wav,j,t,,,,,0,134,134,38,,,,,,,,,,,,,,,j,1,0.9356942849990446,,,111,001,2019_Mar_15_1412,test_run,3.0.6,60.00040452210549,
132,ENW,ENW_42_hamsforing_150219.wav,n,t,,,,,0,135,135,131,,,,,,,,,,,,,,,n,1,1.26934623499983,,,111,001,2019_Mar_15_1412,test_run,3.0.6,60.00040452210549,
65,EFW,EFW_35_affaarer_070319.wav,j,t,,,,,0,136,136,64,,,,,,,,,,,,,,,j,1,0.3693129689927446,,,111,001,2019_Mar_15_1412,test_run,3.0.6,60.00040452210549,
75,EFW,EFW_45_innanfoer_070319.wav,j,t,,,,,0,137,137,74,,,,,,,,,,,,,,,j,1,0.31909602899395395,,,111,001,2019_Mar_15_1412,test_run,3.0.6,60.00040452210549,
167,ENW,ENW_77_somfera_150219.wav,n,t,,,,,0,138,138,166,,,,,,,,,,,,,,,n,1,0.05244482000125572,,,111,001,2019_Mar_15_1412,test_run,3.0.6,60.00040452210549,
82,EFW,EFW_52_framhoalla_070319.wav,j,t,,,,,0,139,139,81,,,,,,,,,,,,,,,j,1,0.8525189989886712,,,111,001,2019_Mar_15_1412,test_run,3.0.6,60.00040452210549,
162,ENW,ENW_72_urskecken_150219.wav,n,t,,,,,0,140,140,161,,,,,,,,,,,,,,,n,1,1.0696962710062508,,,111,001,2019_Mar_15_1412,test_run,3.0.6,60.00040452210549,
109,ENW,ENW_19_morloren_150219.wav,n,t,,,,,0,141,141,108,,,,,,,,,,,,,,,n,1,0.5857954810053343,,,111,001,2019_Mar_15_1412,test_run,3.0.6,60.00040452210549,
139,ENW,ENW_49_hälskrena_150219.wav,n,t,,,,,0,142,142,138,,,,,,,,,,,,,,,n,1,1.1191125949990237,,,111,001,2019_Mar_15_1412,test_run,3.0.6,60.00040452210549,
157,ENW,ENW_67_oafreskar_150219.wav,n,t,,,,,0,143,143,156,,,,,,,,,,,,,,,n,1,0.4690817810042063,,,111,001,2019_Mar_15_1412,test_run,3.0.6,60.00040452210549,
97,ENW,ENW_7_flasera_150219.wav,n,t,,,,,0,144,144,96,,,,,,,,,,,,,,,n,1,0.6524331669934327,,,111,001,2019_Mar_15_1412,test_run,3.0.6,60.00040452210549,
80,EFW,EFW_50_snaalla_070319.wav,j,t,,,,,0,145,145,79,,,,,,,,,,,,,,,j,1,0.21936835598899052,,,111,001,2019_Mar_15_1412,test_run,3.0.6,60.00040452210549,
170,ENW,ENW_80_tjarfera_150219.wav,n,t,,,,,0,146,146,169,,,,,,,,,,,,,,,n,1,0.38643265000428073,,,111,001,2019_Mar_15_1412,test_run,3.0.6,60.00040452210549,
32,EFW,EFW_2_snarare_070319.wav,j,t,,,,,0,147,147,31,,,,,,,,,,,,,,,j,1,0.31911870700423606,,,111,001,2019_Mar_15_1412,test_run,3.0.6,60.00040452210549,
29,ETW,ETW_29_oeverhuvud_070319.wav,j,t,,,,,0,148,148,28,,,,,,,,,,,,,,,j,1,0.2860991740017198,,,111,001,2019_Mar_15_1412,test_run,3.0.6,60.00040452210549,
166,ENW,ENW_76_omfläskor_150219.wav,n,t,,,,,0,149,149,165,,,,,,,,,,,,,,,n,1,0.5355359389941441,,,111,001,2019_Mar_15_1412,test_run,3.0.6,60.00040452210549,
137,ENW,ENW_47_oafläppen_150219.wav,n,t,,,,,0,150,150,136,,,,,,,,,,,,,,,n,1,0.30268130399053916,,,111,001,2019_Mar_15_1412,test_run,3.0.6,60.00040452210549,
115,ENW,ENW_25_affierar_150219.wav,n,t,,,,,0,151,151,114,,,,,,,,,,,,,,,n,1,0.5186958170088474,,,111,001,2019_Mar_15_1412,test_run,3.0.6,60.00040452210549,
179,ENW,ENW_89_mikenspoan_150219.wav,n,t,,,,,0,152,152,178,,,,,,,,,,,,,,,n,1,0.40317288000369444,,,111,001,2019_Mar_15_1412,test_run,3.0.6,60.00040452210549,
35,EFW,EFW_5_samhaalle_070319.wav,j,t,,,,,0,153,153,34,,,,,,,,,,,,,,,j,1,0.30223287400440313,,,111,001,2019_Mar_15_1412,test_run,3.0.6,60.00040452210549,
102,ENW,ENW_12_snälmola_150219.wav,n,t,,,,,0,154,154,101,,,,,,,,,,,,,,,n,1,1.1357743060070788,,,111,001,2019_Mar_15_1412,test_run,3.0.6,60.00040452210549,
111,ENW,ENW_21_tjulning_150219.wav,n,t,,,,,0,155,155,110,,,,,,,,,,,,,,,n,1,0.7197483749914682,,,111,001,2019_Mar_15_1412,test_run,3.0.6,60.00040452210549,
26,ETW,ETW_26_olympiad_070319.wav,j,t,,,,,0,156,156,25,,,,,,,,,,,,,,,j,1,0.5192951679928228,,,111,001,2019_Mar_15_1412,test_run,3.0.6,60.00040452210549,
41,EFW,EFW_11_maanniskor_070319.wav,j,t,,,,,0,157,157,40,,,,,,,,,,,,,,,j,1,0.35289495800680015,,,111,001,2019_Mar_15_1412,test_run,3.0.6,60.00040452210549,
15,ETW,ETW_15_knivsudd_070319.wav,j,t,,,,,0,158,158,14,,,,,,,,,,,,,,,n,0,1.1685981579939835,,,111,001,2019_Mar_15_1412,test_run,3.0.6,60.00040452210549,
24,ETW,ETW_24_oeverfloed_070319.wav,j,t,,,,,0,159,159,23,,,,,,,,,,,,,,,j,1,0.8862348160037072,,,111,001,2019_Mar_15_1412,test_run,3.0.6,60.00040452210549,
70,EFW,EFW_40_miljoner_070319.wav,j,t,,,,,0,160,160,69,,,,,,,,,,,,,,,j,1,0.8854719220107654,,,111,001,2019_Mar_15_1412,test_run,3.0.6,60.00040452210549,
69,EFW,EFW_39_foersvara_070319.wav,j,t,,,,,0,161,161,68,,,,,,,,,,,,,,,j,1,0.4838162590021966,,,111,001,2019_Mar_15_1412,test_run,3.0.6,60.00040452210549,
113,ENW,ENW_23_allsänning_150219.wav,n,t,,,,,0,162,162,112,,,,,,,,,,,,,,,n,1,0.4692460520018358,,,111,001,2019_Mar_15_1412,test_run,3.0.6,60.00040452210549,
87,EFW,EFW_57_loenerna_070319.wav,j,t,,,,,0,163,163,86,,,,,,,,,,,,,,,j,1,0.5355126810027286,,,111,001,2019_Mar_15_1412,test_run,3.0.6,60.00040452210549,
110,ENW,ENW_20_invonen_150219.wav,n,t,,,,,0,164,164,109,,,,,,,,,,,,,,,n,1,0.2690098650055006,,,111,001,2019_Mar_15_1412,test_run,3.0.6,60.00040452210549,
67,EFW,EFW_37_foervisso_070319.wav,j,t,,,,,0,165,165,66,,,,,,,,,,,,,,,j,1,0.05193247199349571,,,111,001,2019_Mar_15_1412,test_run,3.0.6,60.00040452210549,
135,ENW,ENW_45_fammoarens_150219.wav,n,t,,,,,0,166,166,134,,,,,,,,,,,,,,,n,1,0.753049884995562,,,111,001,2019_Mar_15_1412,test_run,3.0.6,60.00040452210549,
98,ENW,ENW_8_haväras_150219.wav,n,t,,,,,0,167,167,97,,,,,,,,,,,,,,,n,1,1.4029257340007462,,,111,001,2019_Mar_15_1412,test_run,3.0.6,60.00040452210549,
84,EFW,EFW_54_romaner_070319.wav,j,t,,,,,0,168,168,83,,,,,,,,,,,,,,,j,1,0.3356623300060164,,,111,001,2019_Mar_15_1412,test_run,3.0.6,60.00040452210549,
77,EFW,EFW_47_invoanare_070319.wav,j,t,,,,,0,169,169,76,,,,,,,,,,,,,,,j,1,0.41890366999723483,,,111,001,2019_Mar_15_1412,test_run,3.0.6,60.00040452210549,
57,EFW,EFW_27_analysera_070319.wav,j,t,,,,,0,170,170,56,,,,,,,,,,,,,,,j,1,0.35252083200612105,,,111,001,2019_Mar_15_1412,test_run,3.0.6,60.00040452210549,
38,EFW,EFW_8_samman_070319.wav,j,t,,,,,0,171,171,37,,,,,,,,,,,,,,,j,1,0.569414074998349,,,111,001,2019_Mar_15_1412,test_run,3.0.6,60.00040452210549,
71,EFW,EFW_41_infinna_070319.wav,j,t,,,,,0,172,172,70,,,,,,,,,,,,,,,j,1,0.3192996490106452,,,111,001,2019_Mar_15_1412,test_run,3.0.6,60.00040452210549,
126,ENW,ENW_36_skymlosa_150219.wav,n,t,,,,,0,173,173,125,,,,,,,,,,,,,,,n,1,1.2361290609987918,,,111,001,2019_Mar_15_1412,test_run,3.0.6,60.00040452210549,
176,ENW,ENW_86_heloppsin_150219.wav,n,t,,,,,0,174,174,175,,,,,,,,,,,,,,,n,1,2.2191671319887973,,,111,001,2019_Mar_15_1412,test_run,3.0.6,60.00040452210549,
169,ENW,ENW_79_lyxmare_150219.wav,n,t,,,,,0,175,175,168,,,,,,,,,,,,,,,n,1,0.18597390998911578,,,111,001,2019_Mar_15_1412,test_run,3.0.6,60.00040452210549,
13,ETW,ETW_13_oevervoald_070319.wav,j,t,,,,,0,176,176,12,,,,,,,,,,,,,,,n,0,2.185772109005484,,,111,001,2019_Mar_15_1412,test_run,3.0.6,60.00040452210549,
178,ENW,ENW_88_marsifen_150219.wav,n,t,,,,,0,177,177,177,,,,,,,,,,,,,,,n,1,0.15299250699172262,,,111,001,2019_Mar_15_1412,test_run,3.0.6,60.00040452210549,
86,EFW,EFW_56_mormor_070319.wav,j,t,,,,,0,178,178,85,,,,,,,,,,,,,,,j,1,0.5027208259998588,,,111,001,2019_Mar_15_1412,test_run,3.0.6,60.00040452210549,
171,ENW,ENW_81_persifera_150219.wav,n,t,,,,,0,179,179,170,,,,,,,,,,,,,,,n,1,0.4358670869987691,,,111,001,2019_Mar_15_1412,test_run,3.0.6,60.00040452210549,
23,TDF,TDF_23_hud_070319.wav,,,1,rating_t_final.csv,t,final,,,,,0,0,0,0,0,0,0,1,0,0,0,22,,,,,,4,22.938,111,001,2019_Mar_15_1412,test_run,3.0.6,60.00040452210549,
10,TTF,TTF_10_broet_070319.wav,,,1,rating_t_final.csv,t,final,,,,,0,0,0,0,0,0,0,1,0,1,1,9,,,,,,7,3.52,111,001,2019_Mar_15_1412,test_run,3.0.6,60.00040452210549,
8,TTF,TTF_8_noet_070319.wav,,,1,rating_t_final.csv,t,final,,,,,0,0,0,0,0,0,0,1,0,2,2,7,,,,,,7,2.287,111,001,2019_Mar_15_1412,test_run,3.0.6,60.00040452210549,
28,TDF,TDF_28_brand_070319.wav,,,1,rating_t_final.csv,t,final,,,,,0,0,0,0,0,0,0,1,0,3,3,27,,,,,,6,4.587,111,001,2019_Mar_15_1412,test_run,3.0.6,60.00040452210549,
4,TTF,TTF_4_roet_070319.wav,,,1,rating_t_final.csv,t,final,,,,,0,0,0,0,0,0,0,1,0,4,4,3,,,,,,7,5.187,111,001,2019_Mar_15_1412,test_run,3.0.6,60.00040452210549,
2,TTF,TTF_2_vet_070319.wav,,,1,rating_t_final.csv,t,final,,,,,0,0,0,0,0,0,0,1,0,5,5,1,,,,,,7,2.154,111,001,2019_Mar_15_1412,test_run,3.0.6,60.00040452210549,
19,TDF,TDF_19_sjod_070319.wav,,,1,rating_t_final.csv,t,final,,,,,0,0,0,0,0,0,0,1,0,6,6,18,,,,,,4,3.737,111,001,2019_Mar_15_1412,test_run,3.0.6,60.00040452210549,
18,TDF,TDF_18_sjud_070319.wav,,,1,rating_t_final.csv,t,final,,,,,0,0,0,0,0,0,0,1,0,7,7,17,,,,,,6,2.97,111,001,2019_Mar_15_1412,test_run,3.0.6,60.00040452210549,
1,TTF,TTF_1_rit_070319.wav,,,1,rating_t_final.csv,t,final,,,,,0,0,0,0,0,0,0,1,0,8,8,0,,,,,,7,2.121,111,001,2019_Mar_15_1412,test_run,3.0.6,60.00040452210549,
17,TDF,TDF_17_sked_070319.wav,,,1,rating_t_final.csv,t,final,,,,,0,0,0,0,0,0,0,1,0,9,9,16,,,,,,3,19.203,111,001,2019_Mar_15_1412,test_run,3.0.6,60.00040452210549,
22,TDF,TDF_22_hed_070319.wav,,,1,rating_t_final.csv,t,final,,,,,0,0,0,0,0,0,0,1,0,10,10,21,,,,,,1,1.504,111,001,2019_Mar_15_1412,test_run,3.0.6,60.00040452210549,
15,TTF,TTF_15_not_070319.wav,,,1,rating_t_final.csv,t,final,,,,,0,0,0,0,0,0,0,1,0,11,11,14,,,,,,6,2.137,111,001,2019_Mar_15_1412,test_run,3.0.6,60.00040452210549,
12,TTF,TTF_12_smet_070319.wav,,,1,rating_t_final.csv,t,final,,,,,0,0,0,0,0,0,0,1,0,12,12,11,,,,,,7,1.371,111,001,2019_Mar_15_1412,test_run,3.0.6,60.00040452210549,
31,TDF,TDF_31_brodd_070319.wav,,,1,rating_t_final.csv,t,final,,,,,0,0,0,0,0,0,0,1,0,13,13,30,,,,,,4,4.721,111,001,2019_Mar_15_1412,test_run,3.0.6,60.00040452210549,
21,TDF,TDF_21_ljod _070319.wav,,,1,rating_t_final.csv,t,final,,,,,0,0,0,0,0,0,0,1,0,14,14,20,,,,,,4,5.404,111,001,2019_Mar_15_1412,test_run,3.0.6,60.00040452210549,
6,TTF,TTF_6_voart_070319.wav,,,1,rating_t_final.csv,t,final,,,,,0,0,0,0,0,0,0,1,0,15,15,5,,,,,,7,1.553,111,001,2019_Mar_15_1412,test_run,3.0.6,60.00040452210549,
14,TTF,TTF_14_mot_070319.wav,,,1,rating_t_final.csv,t,final,,,,,0,0,0,0,0,0,0,1,0,16,16,13,,,,,,7,0.97,111,001,2019_Mar_15_1412,test_run,3.0.6,60.00040452210549,
27,TDF,TDF_27_sand_070319.wav,,,1,rating_t_final.csv,t,final,,,,,0,0,0,0,0,0,0,1,0,17,17,26,,,,,,2,6.571,111,001,2019_Mar_15_1412,test_run,3.0.6,60.00040452210549,
29,TDF,TDF_29_baadd_070319.wav,,,1,rating_t_final.csv,t,final,,,,,0,0,0,0,0,0,0,1,0,18,18,28,,,,,,1,6.555,111,001,2019_Mar_15_1412,test_run,3.0.6,60.00040452210549,
5,TTF,TTF_5_voat_070319.wav,,,1,rating_t_final.csv,t,final,,,,,0,0,0,0,0,0,0,1,0,19,19,4,,,,,,7,1.238,111,001,2019_Mar_15_1412,test_run,3.0.6,60.00040452210549,
7,TTF,TTF_7_vit_070319.wav,,,1,rating_t_final.csv,t,final,,,,,0,0,0,0,0,0,0,1,0,20,20,6,,,,,,7,1.338,111,001,2019_Mar_15_1412,test_run,3.0.6,60.00040452210549,
30,TDF,TDF_30_sladd_070319.wav,,,1,rating_t_final.csv,t,final,,,,,0,0,0,0,0,0,0,1,0,21,21,29,,,,,,1,1.22,111,001,2019_Mar_15_1412,test_run,3.0.6,60.00040452210549,
26,TDF,TDF_26_rymd_070319.wav,,,1,rating_t_final.csv,t,final,,,,,0,0,0,0,0,0,0,1,0,22,22,25,,,,,,1,2.636,111,001,2019_Mar_15_1412,test_run,3.0.6,60.00040452210549,
24,TDF,TDF_24_smid_070319.wav,,,1,rating_t_final.csv,t,final,,,,,0,0,0,0,0,0,0,1,0,23,23,23,,,,,,3,2.504,111,001,2019_Mar_15_1412,test_run,3.0.6,60.00040452210549,
16,TTF,TTF_16_font_070319.wav,,,1,rating_t_final.csv,t,final,,,,,0,0,0,0,0,0,0,1,0,24,24,15,,,,,,7,1.621,111,001,2019_Mar_15_1412,test_run,3.0.6,60.00040452210549,
32,TDF,TDF_32_hoard_070319.wav,,,1,rating_t_final.csv,t,final,,,,,0,0,0,0,0,0,0,1,0,25,25,31,,,,,,2,2.803,111,001,2019_Mar_15_1412,test_run,3.0.6,60.00040452210549,
3,TTF,TTF_3_raat_070319.wav,,,1,rating_t_final.csv,t,final,,,,,0,0,0,0,0,0,0,1,0,26,26,2,,,,,,6,2.954,111,001,2019_Mar_15_1412,test_run,3.0.6,60.00040452210549,
25,TDF,TDF_25_synd_070319.wav,,,1,rating_t_final.csv,t,final,,,,,0,0,0,0,0,0,0,1,0,27,27,24,,,,,,5,6.587,111,001,2019_Mar_15_1412,test_run,3.0.6,60.00040452210549,
20,TDF,TDF_20_god_070319.wav,,,1,rating_t_final.csv,t,final,,,,,0,0,0,0,0,0,0,1,0,28,28,19,,,,,,6,1.388,111,001,2019_Mar_15_1412,test_run,3.0.6,60.00040452210549,
13,TTF,TTF_13_gjut_070319.wav,,,1,rating_t_final.csv,t,final,,,,,0,0,0,0,0,0,0,1,0,29,29,12,,,,,,7,0.921,111,001,2019_Mar_15_1412,test_run,3.0.6,60.00040452210549,
11,TTF,TTF_11_svit_070319.wav,,,1,rating_t_final.csv,t,final,,,,,0,0,0,0,0,0,0,1,0,30,30,10,,,,,,7,1.387,111,001,2019_Mar_15_1412,test_run,3.0.6,60.00040452210549,
9,TTF,TTF_9_bot_070319.wav,,,1,rating_t_final.csv,t,final,,,,,0,0,0,0,0,0,0,1,0,31,31,8,,,,,,7,1.77,111,001,2019_Mar_15_1412,test_run,3.0.6,60.00040452210549,
14,TDF,TDF_14_mod_070319.wav,,,1,rating_d_final.csv,d,final,,,,,0,0,0,0,0,1,1,0,0,0,0,13,,,,,,6,3.703,111,001,2019_Mar_15_1412,test_run,3.0.6,60.00040452210549,
4,TDF,TDF_4_rod_070319.wav,,,1,rating_d_final.csv,d,final,,,,,0,0,0,0,0,1,1,0,0,1,1,3,,,,,,2,6.404,111,001,2019_Mar_15_1412,test_run,3.0.6,60.00040452210549,
20,TTF,TTF_20_got_070319.wav,,,1,rating_d_final.csv,d,final,,,,,0,0,0,0,0,1,1,0,0,2,2,19,,,,,,1,1.437,111,001,2019_Mar_15_1412,test_run,3.0.6,60.00040452210549,
24,TTF,TTF_24_smit_070319.wav,,,1,rating_d_final.csv,d,final,,,,,0,0,0,0,0,1,1,0,0,3,3,23,,,,,,1,0.887,111,001,2019_Mar_15_1412,test_run,3.0.6,60.00040452210549,
30,TTF,TTF_30_slatt_070319.wav,,,1,rating_d_final.csv,d,final,,,,,0,0,0,0,0,1,1,0,0,4,4,29,,,,,,1,0.587,111,001,2019_Mar_15_1412,test_run,3.0.6,60.00040452210549,
2,TDF,TDF_2_ved_070319.wav,,,1,rating_d_final.csv,d,final,,,,,0,0,0,0,0,1,1,0,0,5,5,1,,,,,,5,3.604,111,001,2019_Mar_15_1412,test_run,3.0.6,60.00040452210549,
13,TDF,TDF_13_ljud_070319.wav,,,1,rating_d_final.csv,d,final,,,,,0,0,0,0,0,1,1,0,0,6,6,12,,,,,,4,2.003,111,001,2019_Mar_15_1412,test_run,3.0.6,60.00040452210549,
31,TTF,TTF_31_brott_070319.wav,,,1,rating_d_final.csv,d,final,,,,,0,0,0,0,0,1,1,0,0,7,7,30,,,,,,1,0.703,111,001,2019_Mar_15_1412,test_run,3.0.6,60.00040452210549,
12,TDF,TDF_12_smed_070319.wav,,,1,rating_d_final.csv,d,final,,,,,0,0,0,0,0,1,1,0,0,8,8,11,,,,,,4,1.053,111,001,2019_Mar_15_1412,test_run,3.0.6,60.00040452210549,
29,TTF,TTF_29_bett_070319.wav,,,1,rating_d_final.csv,d,final,,,,,0,0,0,0,0,1,1,0,0,9,9,28,,,,,,1,0.838,111,001,2019_Mar_15_1412,test_run,3.0.6,60.00040452210549,
28,TTF,TTF_28_brant_070319.wav,,,1,rating_d_final.csv,d,final,,,,,0,0,0,0,0,1,1,0,0,10,10,27,,,,,,1,1.287,111,001,2019_Mar_15_1412,test_run,3.0.6,60.00040452210549,
7,TDF,TDF_7_vid_070319.wav,,,1,rating_d_final.csv,d,final,,,,,0,0,0,0,0,1,1,0,0,11,11,6,,,,,,2,3.021,111,001,2019_Mar_15_1412,test_run,3.0.6,60.00040452210549,
27,TTF,TTF_27_sant_070319.wav,,,1,rating_d_final.csv,d,final,,,,,0,0,0,0,0,1,1,0,0,12,12,26,,,,,,1,1.937,111,001,2019_Mar_15_1412,test_run,3.0.6,60.00040452210549,
15,TDF,TDF_15_nod_070319.wav,,,1,rating_d_final.csv,d,final,,,,,0,0,0,0,0,1,1,0,0,13,13,14,,,,,,3,2.536,111,001,2019_Mar_15_1412,test_run,3.0.6,60.00040452210549,
23,TTF,TTF_23_hut_070319.wav,,,1,rating_d_final.csv,d,final,,,,,0,0,0,0,0,1,1,0,0,14,14,22,,,,,,2,1.386,111,001,2019_Mar_15_1412,test_run,3.0.6,60.00040452210549,
9,TDF,TDF_9_bod_070319.wav,,,1,rating_d_final.csv,d,final,,,,,0,0,0,0,0,1,1,0,0,15,15,8,,,,,,3,2.02,111,001,2019_Mar_15_1412,test_run,3.0.6,60.00040452210549,
1,TDF,TDF_1_rid_070319.wav,,,1,rating_d_final.csv,d,final,,,,,0,0,0,0,0,1,1,0,0,16,16,0,,,,,,2,1.386,111,001,2019_Mar_15_1412,test_run,3.0.6,60.00040452210549,
3,TDF,TDF_3_raad_070319.wav,,,1,rating_d_final.csv,d,final,,,,,0,0,0,0,0,1,1,0,0,17,17,2,,,,,,5,1.636,111,001,2019_Mar_15_1412,test_run,3.0.6,60.00040452210549,
17,TTF,TTF_17_sket_070319.wav,,,1,rating_d_final.csv,d,final,,,,,0,0,0,0,0,1,1,0,0,18,18,16,,,,,,1,0.621,111,001,2019_Mar_15_1412,test_run,3.0.6,60.00040452210549,
8,TDF,TDF_8_nod_070319.wav,,,1,rating_d_final.csv,d,final,,,,,0,0,0,0,0,1,1,0,0,19,19,7,,,,,,2,2.571,111,001,2019_Mar_15_1412,test_run,3.0.6,60.00040452210549,
10,TDF,TDF_10_brod_070319.wav,,,1,rating_d_final.csv,d,final,,,,,0,0,0,0,0,1,1,0,0,20,20,9,,,,,,2,3.188,111,001,2019_Mar_15_1412,test_run,3.0.6,60.00040452210549,
11,TDF,TDF_11_svid_070319.wav,,,1,rating_d_final.csv,d,final,,,,,0,0,0,0,0,1,1,0,0,21,21,10,,,,,,1,0.987,111,001,2019_Mar_15_1412,test_run,3.0.6,60.00040452210549,
19,TTF,TTF_19_skoet_070319.wav,,,1,rating_d_final.csv,d,final,,,,,0,0,0,0,0,1,1,0,0,22,22,18,,,,,,1,0.52,111,001,2019_Mar_15_1412,test_run,3.0.6,60.00040452210549,
16,TDF,TDF_16_fond_070319.wav,,,1,rating_d_final.csv,d,final,,,,,0,0,0,0,0,1,1,0,0,23,23,15,,,,,,5,1.204,111,001,2019_Mar_15_1412,test_run,3.0.6,60.00040452210549,
5,TDF,TDF_5_voad_070319.wav,,,1,rating_d_final.csv,d,final,,,,,0,0,0,0,0,1,1,0,0,24,24,4,,,,,,5,1.82,111,001,2019_Mar_15_1412,test_run,3.0.6,60.00040452210549,
32,TTF,TTF_32_hoart_070319.wav,,,1,rating_d_final.csv,d,final,,,,,0,0,0,0,0,1,1,0,0,25,25,31,,,,,,2,1.62,111,001,2019_Mar_15_1412,test_run,3.0.6,60.00040452210549,
25,TTF,TTF_25_synt_070319.wav,,,1,rating_d_final.csv,d,final,,,,,0,0,0,0,0,1,1,0,0,26,26,24,,,,,,1,0.821,111,001,2019_Mar_15_1412,test_run,3.0.6,60.00040452210549,
22,TTF,TTF_22_het_070319.wav,,,1,rating_d_final.csv,d,final,,,,,0,0,0,0,0,1,1,0,0,27,27,21,,,,,,1,0.788,111,001,2019_Mar_15_1412,test_run,3.0.6,60.00040452210549,
21,TTF,TTF_21_gjoet_070319.wav,,,1,rating_d_final.csv,d,final,,,,,0,0,0,0,0,1,1,0,0,28,28,20,,,,,,1,1.287,111,001,2019_Mar_15_1412,test_run,3.0.6,60.00040452210549,
6,TDF,TDF_6_voard_070319.wav,,,1,rating_d_final.csv,d,final,,,,,0,0,0,0,0,1,1,0,0,29,29,5,,,,,,6,1.321,111,001,2019_Mar_15_1412,test_run,3.0.6,60.00040452210549,
18,TTF,TTF_18_skjut_070319.wav,,,1,rating_d_final.csv,d,final,,,,,0,0,0,0,0,1,1,0,0,30,30,17,,,,,,1,0.67,111,001,2019_Mar_15_1412,test_run,3.0.6,60.00040452210549,
26,TTF,TTF_26_rymt_070319.wav,,,1,rating_d_final.csv,d,final,,,,,0,0,0,0,0,1,1,0,0,31,31,25,,,,,,1,0.77,111,001,2019_Mar_15_1412,test_run,3.0.6,60.00040452210549,
8,TDI,TDI_8_dia_150219.wav,,,2,rating_d_initial.csv,d,initial,,,,,0,1,1,1,0,0,0,0,0,0,0,7,,,,,,7,2.17,111,001,2019_Mar_15_1412,test_run,3.0.6,60.00040452210549,
9,TDI,TDI_9_dill_150219.wav,,,2,rating_d_initial.csv,d,initial,,,,,0,1,1,1,0,0,0,0,0,1,1,8,,,,,,7,0.703,111,001,2019_Mar_15_1412,test_run,3.0.6,60.00040452210549,
27,TTI,TTI_27_toem_150219.wav,,,2,rating_d_initial.csv,d,initial,,,,,0,1,1,1,0,0,0,0,0,2,2,26,,,,,,2,1.821,111,001,2019_Mar_15_1412,test_run,3.0.6,60.00040452210549,
16,TTI,TTI_16_ton_150219.wav,,,2,rating_d_initial.csv,d,initial,,,,,0,1,1,1,0,0,0,0,0,3,3,15,,,,,,1,0.988,111,001,2019_Mar_15_1412,test_run,3.0.6,60.00040452210549,
26,TTI,TTI_26_toe_150219.wav,,,2,rating_d_initial.csv,d,initial,,,,,0,1,1,1,0,0,0,0,0,4,4,25,,,,,,2,2.22,111,001,2019_Mar_15_1412,test_run,3.0.6,60.00040452210549,
20,TTI,TTI_20_tur_150219.wav,,,2,rating_d_initial.csv,d,initial,,,,,0,1,1,1,0,0,0,0,0,5,5,19,,,,,,1,1.288,111,001,2019_Mar_15_1412,test_run,3.0.6,60.00040452210549,
23,TTI,TTI_23_toa_150219.wav,,,2,rating_d_initial.csv,d,initial,,,,,0,1,1,1,0,0,0,0,0,6,6,22,,,,,,1,2.371,111,001,2019_Mar_15_1412,test_run,3.0.6,60.00040452210549,
21,TTI,TTI_21_tugg_150219.wav,,,2,rating_d_initial.csv,d,initial,,,,,0,1,1,1,0,0,0,0,0,7,7,20,,,,,,1,0.737,111,001,2019_Mar_15_1412,test_run,3.0.6,60.00040452210549,
15,TTI,TTI_15_tom_150219.wav,,,2,rating_d_initial.csv,d,initial,,,,,0,1,1,1,0,0,0,0,0,8,8,14,,,,,,1,0.554,111,001,2019_Mar_15_1412,test_run,3.0.6,60.00040452210549,
19,TTI,TTI_19_tun_150219.wav,,,2,rating_d_initial.csv,d,initial,,,,,0,1,1,1,0,0,0,0,0,9,9,18,,,,,,1,0.987,111,001,2019_Mar_15_1412,test_run,3.0.6,60.00040452210549,
22,TTI,TTI_22_ty_150219.wav,,,2,rating_d_initial.csv,d,initial,,,,,0,1,1,1,0,0,0,0,0,10,10,21,,,,,,2,1.121,111,001,2019_Mar_15_1412,test_run,3.0.6,60.00040452210549,
7,TDI,TDI_7_den_150219.wav,,,2,rating_d_initial.csv,d,initial,,,,,0,1,1,1,0,0,0,0,0,11,11,6,,,,,,7,0.705,111,001,2019_Mar_15_1412,test_run,3.0.6,60.00040452210549,
14,TDI,TDI_14_dok_150219.wav,,,2,rating_d_initial.csv,d,initial,,,,,0,1,1,1,0,0,0,0,0,12,12,13,,,,,,3,2.003,111,001,2019_Mar_15_1412,test_run,3.0.6,60.00040452210549,
12,TDI,TDI_12_doa_150219.wav,,,2,rating_d_initial.csv,d,initial,,,,,0,1,1,1,0,0,0,0,0,13,13,11,,,,,,6,2.687,111,001,2019_Mar_15_1412,test_run,3.0.6,60.00040452210549,
1,TDI,TDI_1_dag_150219.wav,,,2,rating_d_initial.csv,d,initial,,,,,0,1,1,1,0,0,0,0,0,14,14,0,,,,,,6,1.486,111,001,2019_Mar_15_1412,test_run,3.0.6,60.00040452210549,
2,TDI,TDI_2_dagg_150219.wav,,,2,rating_d_initial.csv,d,initial,,,,,0,1,1,1,0,0,0,0,0,15,15,1,,,,,,7,1.72,111,001,2019_Mar_15_1412,test_run,3.0.6,60.00040452210549,
13,TDI,TDI_13_dog_150219.wav,,,2,rating_d_initial.csv,d,initial,,,,,0,1,1,1,0,0,0,0,0,16,16,12,,,,,,7,0.887,111,001,2019_Mar_15_1412,test_run,3.0.6,60.00040452210549,
24,TTI,TTI_24_taack_150219.wav,,,2,rating_d_initial.csv,d,initial,,,,,0,1,1,1,0,0,0,0,0,17,17,23,,,,,,4,3.071,111,001,2019_Mar_15_1412,test_run,3.0.6,60.00040452210549,
25,TTI,TTI_25_taar_150219.wav,,,2,rating_d_initial.csv,d,initial,,,,,0,1,1,1,0,0,0,0,0,18,18,24,,,,,,6,1.104,111,001,2019_Mar_15_1412,test_run,3.0.6,60.00040452210549,
17,TTI,TTI_17_topp_150219.wav,,,2,rating_d_initial.csv,d,initial,,,,,0,1,1,1,0,0,0,0,0,19,19,16,,,,,,4,2.138,111,001,2019_Mar_15_1412,test_run,3.0.6,60.00040452210549,
3,TDI,TDI_3_dal_150219.wav,,,2,rating_d_initial.csv,d,initial,,,,,0,1,1,1,0,0,0,0,0,20,20,2,,,,,,7,0.754,111,001,2019_Mar_15_1412,test_run,3.0.6,60.00040452210549,
10,TDI,TDI_10_ditt_150219.wav,,,2,rating_d_initial.csv,d,initial,,,,,0,1,1,1,0,0,0,0,0,21,21,9,,,,,,6,1.071,111,001,2019_Mar_15_1412,test_run,3.0.6,60.00040452210549,
6,TDI,TDI_6_deg_150219.wav,,,2,rating_d_initial.csv,d,initial,,,,,0,1,1,1,0,0,0,0,0,22,22,5,,,,,,6,2.071,111,001,2019_Mar_15_1412,test_run,3.0.6,60.00040452210549,
4,TDI,TDI_4_dam_150219.wav,,,2,rating_d_initial.csv,d,initial,,,,,0,1,1,1,0,0,0,0,0,23,23,3,,,,,,7,1.004,111,001,2019_Mar_15_1412,test_run,3.0.6,60.00040452210549,
11,TDI,TDI_11_dipp_150219.wav,,,2,rating_d_initial.csv,d,initial,,,,,0,1,1,1,0,0,0,0,0,24,24,10,,,,,,6,4.387,111,001,2019_Mar_15_1412,test_run,3.0.6,60.00040452210549,
18,TTI,TTI_18_tum_150219.wav,,,2,rating_d_initial.csv,d,initial,,,,,0,1,1,1,0,0,0,0,0,25,25,17,,,,,,6,1.303,111,001,2019_Mar_15_1412,test_run,3.0.6,60.00040452210549,
5,TDI,TDI_5_dass_150219.wav,,,2,rating_d_initial.csv,d,initial,,,,,0,1,1,1,0,0,0,0,0,26,26,4,,,,,,7,0.92,111,001,2019_Mar_15_1412,test_run,3.0.6,60.00040452210549,
8,TTI,TTI_8_tia_150219.wav,,,2,rating_t_initial.csv,t,initial,,,,,0,1,1,1,0,1,1,1,0,0,0,7,,,,,,7,2.587,111,001,2019_Mar_15_1412,test_run,3.0.6,60.00040452210549,
14,TTI,TTI_14_tok_150219.wav,,,2,rating_t_initial.csv,t,initial,,,,,0,1,1,1,0,1,1,1,0,1,1,13,,,,,,5,1.987,111,001,2019_Mar_15_1412,test_run,3.0.6,60.00040452210549,
19,TDI,TDI_19_dun_150219.wav,,,2,rating_t_initial.csv,t,initial,,,,,0,1,1,1,0,1,1,1,0,2,2,18,,,,,,1,1.338,111,001,2019_Mar_15_1412,test_run,3.0.6,60.00040452210549,
10,TTI,TTI_10_titt_150219.wav,,,2,rating_t_initial.csv,t,initial,,,,,0,1,1,1,0,1,1,1,0,3,3,9,,,,,,3,2.153,111,001,2019_Mar_15_1412,test_run,3.0.6,60.00040452210549,
16,TDI,TDI_16_don_150219.wav,,,2,rating_t_initial.csv,t,initial,,,,,0,1,1,1,0,1,1,1,0,4,4,15,,,,,,2,0.838,111,001,2019_Mar_15_1412,test_run,3.0.6,60.00040452210549,
4,TTI,TTI_4_tam_150219.wav,,,2,rating_t_initial.csv,t,initial,,,,,0,1,1,1,0,1,1,1,0,5,5,3,,,,,,4,1.504,111,001,2019_Mar_15_1412,test_run,3.0.6,60.00040452210549,
11,TTI,TTI_11_tipp_150219.wav,,,2,rating_t_initial.csv,t,initial,,,,,0,1,1,1,0,1,1,1,0,6,6,10,,,,,,2,0.671,111,001,2019_Mar_15_1412,test_run,3.0.6,60.00040452210549,
2,TTI,TTI_2_tagg_150219.wav,,,2,rating_t_initial.csv,t,initial,,,,,0,1,1,1,0,1,1,1,0,7,7,1,,,,,,6,5.754,111,001,2019_Mar_15_1412,test_run,3.0.6,60.00040452210549,
26,TDI,TDI_26_doe_150219.wav,,,2,rating_t_initial.csv,t,initial,,,,,0,1,1,1,0,1,1,1,0,8,8,25,,,,,,1,0.771,111,001,2019_Mar_15_1412,test_run,3.0.6,60.00040452210549,
9,TTI,TTI_9_till_150219.wav,,,2,rating_t_initial.csv,t,initial,,,,,0,1,1,1,0,1,1,1,0,9,9,8,,,,,,4,2.121,111,001,2019_Mar_15_1412,test_run,3.0.6,60.00040452210549,
18,TDI,TDI_18_dum_150219.wav,,,2,rating_t_initial.csv,t,initial,,,,,0,1,1,1,0,1,1,1,0,10,10,17,,,,,,1,0.653,111,001,2019_Mar_15_1412,test_run,3.0.6,60.00040452210549,
3,TTI,TTI_3_tal_150219.wav,,,2,rating_t_initial.csv,t,initial,,,,,0,1,1,1,0,1,1,1,0,11,11,2,,,,,,3,1.488,111,001,2019_Mar_15_1412,test_run,3.0.6,60.00040452210549,
22,TDI,TDI_22_dy_150219.wav,,,2,rating_t_initial.csv,t,initial,,,,,0,1,1,1,0,1,1,1,0,12,12,21,,,,,,3,3.071,111,001,2019_Mar_15_1412,test_run,3.0.6,60.00040452210549,
7,TTI,TTI_7_tenn_150219.wav,,,2,rating_t_initial.csv,t,initial,,,,,0,1,1,1,0,1,1,1,0,13,13,6,,,,,,2,1.937,111,001,2019_Mar_15_1412,test_run,3.0.6,60.00040452210549,
5,TTI,TTI_5_tass_150219.wav,,,2,rating_t_initial.csv,t,initial,,,,,0,1,1,1,0,1,1,1,0,14,14,4,,,,,,3,3.453,111,001,2019_Mar_15_1412,test_run,3.0.6,60.00040452210549,
12,TTI,TTI_12_toa_150219.wav,,,2,rating_t_initial.csv,t,initial,,,,,0,1,1,1,0,1,1,1,0,15,15,11,,,,,,2,9.737,111,001,2019_Mar_15_1412,test_run,3.0.6,60.00040452210549,
6,TTI,TTI_6_teg_150219.wav,,,2,rating_t_initial.csv,t,initial,,,,,0,1,1,1,0,1,1,1,0,16,16,5,,,,,,3,2.221,111,001,2019_Mar_15_1412,test_run,3.0.6,60.00040452210549,
27,TDI,TDI_27_doem_edit_150219.wav,,,2,rating_t_initial.csv,t,initial,,,,,0,1,1,1,0,1,1,1,0,17,17,26,,,,,,1,0.736,111,001,2019_Mar_15_1412,test_run,3.0.6,60.00040452210549,
24,TDI,TDI_24_daack_150219.wav,,,2,rating_t_initial.csv,t,initial,,,,,0,1,1,1,0,1,1,1,0,18,18,23,,,,,,1,1.37,111,001,2019_Mar_15_1412,test_run,3.0.6,60.00040452210549,
23,TDI,TDI_23_doa_150219.wav,,,2,rating_t_initial.csv,t,initial,,,,,0,1,1,1,0,1,1,1,0,19,19,22,,,,,,1,0.654,111,001,2019_Mar_15_1412,test_run,3.0.6,60.00040452210549,
1,TTI,TTI_1_tag_150219.wav,,,2,rating_t_initial.csv,t,initial,,,,,0,1,1,1,0,1,1,1,0,20,20,0,,,,,,2,5.854,111,001,2019_Mar_15_1412,test_run,3.0.6,60.00040452210549,
17,TDI,TDI_17_dopp_150219.wav,,,2,rating_t_initial.csv,t,initial,,,,,0,1,1,1,0,1,1,1,0,21,21,16,,,,,,1,0.488,111,001,2019_Mar_15_1412,test_run,3.0.6,60.00040452210549,
25,TDI,TDI_25_daar_150219.wav,,,2,rating_t_initial.csv,t,initial,,,,,0,1,1,1,0,1,1,1,0,22,22,24,,,,,,1,0.788,111,001,2019_Mar_15_1412,test_run,3.0.6,60.00040452210549,
20,TDI,TDI_20_dur_150219.wav,,,2,rating_t_initial.csv,t,initial,,,,,0,1,1,1,0,1,1,1,0,23,23,19,,,,,,1,1.054,111,001,2019_Mar_15_1412,test_run,3.0.6,60.00040452210549,
21,TDI,TDI_21_dugg_150219.wav,,,2,rating_t_initial.csv,t,initial,,,,,0,1,1,1,0,1,1,1,0,24,24,20,,,,,,2,1.421,111,001,2019_Mar_15_1412,test_run,3.0.6,60.00040452210549,
13,TTI,TTI_13_tog_150219.wav,,,2,rating_t_initial.csv,t,initial,,,,,0,1,1,1,0,1,1,1,0,25,25,12,,,,,,4,1.47,111,001,2019_Mar_15_1412,test_run,3.0.6,60.00040452210549,
15,TDI,TDI_15_dom_150219.wav,,,2,rating_t_initial.csv,t,initial,,,,,0,1,1,1,0,1,1,1,0,26,26,14,,,,,,1,0.803,111,001,2019_Mar_15_1412,test_run,3.0.6,60.00040452210549,
