item,item_cond,sound,corr_ans,group,block_id,listname,rating_for,position,trials.thisRepN,trials.thisTrialN,trials.thisN,trials.thisIndex,run_block_type.thisRepN,run_block_type.thisTrialN,run_block_type.thisN,run_block_type.thisIndex,routine.thisRepN,routine.thisTrialN,routine.thisN,routine.thisIndex,rating_trials.thisRepN,rating_trials.thisTrialN,rating_trials.thisN,rating_trials.thisIndex,key_resp_1.keys,key_resp_1.rt,key_resp_2.keys,key_resp_2.corr,key_resp_2.rt,rating_1.response,rating_1.rt,participant,session,date,expName,psychopyVersion,frameRate,
,,,,,,,,,,,,,,,,,,,,,,,,,return,17.833560041995952,,,,,,112,001,2019_Mar_15_1555,test_run,3.0.6,60.0130847703209,
73,EFW,EFW_43_halvoar_070319.wav,j,c ,,,,,0,0,0,72,,,,,,,,,,,,,,,n,0,6.553388262007502,,,112,001,2019_Mar_15_1555,test_run,3.0.6,60.0130847703209,
89,EFW,EFW_59_filosofin_070319.wav,j,c ,,,,,0,1,1,88,,,,,,,,,,,,,,,j,1,1.2357519039942417,,,112,001,2019_Mar_15_1555,test_run,3.0.6,60.0130847703209,
5,ECW,ECW_5_kamma_070319.wav,j,c ,,,,,0,2,2,4,,,,,,,,,,,,,,,n,0,3.852620161997038,,,112,001,2019_Mar_15_1555,test_run,3.0.6,60.0130847703209,
74,EFW,EFW_44_ljusa_070319.wav,j,c ,,,,,0,3,3,73,,,,,,,,,,,,,,,j,1,1.4503878699906636,,,112,001,2019_Mar_15_1555,test_run,3.0.6,60.0130847703209,
11,ECW,ECW_11_foersoeka_070319.wav,j,c ,,,,,0,4,4,10,,,,,,,,,,,,,,,j,1,0.9860153509944212,,,112,001,2019_Mar_15_1555,test_run,3.0.6,60.0130847703209,
31,EFW,EFW_1_allmaan_070319.wav,j,c ,,,,,0,5,5,30,,,,,,,,,,,,,,,j,1,0.4860665349988267,,,112,001,2019_Mar_15_1555,test_run,3.0.6,60.0130847703209,
111,ENW,ENW_21_tjulning_150219.wav,n,c ,,,,,0,6,6,110,,,,,,,,,,,,,,,n,1,0.9525358679966303,,,112,001,2019_Mar_15_1555,test_run,3.0.6,60.0130847703209,
125,ENW,ENW_35_nymaljen_150219.wav,n,c ,,,,,0,7,7,124,,,,,,,,,,,,,,,n,1,0.5361341019888641,,,112,001,2019_Mar_15_1555,test_run,3.0.6,60.0130847703209,
154,ENW,ENW_64_havskvare_150219.wav,n,c ,,,,,0,8,8,153,,,,,,,,,,,,,,,n,1,1.2694224290025886,,,112,001,2019_Mar_15_1555,test_run,3.0.6,60.0130847703209,
13,ECW,ECW_13_kanonform_070319.wav,j,c ,,,,,0,9,9,12,,,,,,,,,,,,,,,j,1,0.7862382809980772,,,112,001,2019_Mar_15_1555,test_run,3.0.6,60.0130847703209,
79,EFW,EFW_49_vaasen_070319.wav,j,c ,,,,,0,10,10,78,,,,,,,,,,,,,,,j,1,0.06901814798766281,,,112,001,2019_Mar_15_1555,test_run,3.0.6,60.0130847703209,
168,ENW,ENW_78_morvinder_150219.wav,n,c ,,,,,0,11,11,167,,,,,,,,,,,,,,,n,1,2.368895003994112,,,112,001,2019_Mar_15_1555,test_run,3.0.6,60.0130847703209,
169,ENW,ENW_79_lyxmare_150219.wav,n,c ,,,,,0,12,12,168,,,,,,,,,,,,,,,n,1,0.9363006569910794,,,112,001,2019_Mar_15_1555,test_run,3.0.6,60.0130847703209,
131,ENW,ENW_41_vessmaren_150219.wav,n,c ,,,,,0,13,13,130,,,,,,,,,,,,,,,n,1,0.41947402599907946,,,112,001,2019_Mar_15_1555,test_run,3.0.6,60.0130847703209,
50,EFW,EFW_20_fenomen_070319.wav,j,c ,,,,,0,14,14,49,,,,,,,,,,,,,,,j,1,1.3028349289961625,,,112,001,2019_Mar_15_1555,test_run,3.0.6,60.0130847703209,
26,ECW,ECW_26_kroenikoeren_070319.wav,j,c ,,,,,0,15,15,25,,,,,,,,,,,,,,,j,1,0.5033030440099537,,,112,001,2019_Mar_15_1555,test_run,3.0.6,60.0130847703209,
6,ECW,ECW_6_sila_070319.wav,j,c ,,,,,0,16,16,5,,,,,,,,,,,,,,,n,0,1.236428991003777,,,112,001,2019_Mar_15_1555,test_run,3.0.6,60.0130847703209,
151,ENW,ENW_61_myckskina_150219.wav,n,c ,,,,,0,17,17,150,,,,,,,,,,,,,,,n,1,0.2692928699980257,,,112,001,2019_Mar_15_1555,test_run,3.0.6,60.0130847703209,
176,ENW,ENW_86_heloppsin_150219.wav,n,c ,,,,,0,18,18,175,,,,,,,,,,,,,,,n,1,0.3698311170010129,,,112,001,2019_Mar_15_1555,test_run,3.0.6,60.0130847703209,
140,ENW,ENW_50_omsänare_150219.wav,n,c ,,,,,0,19,19,139,,,,,,,,,,,,,,,n,1,0.3004837000044063,,,112,001,2019_Mar_15_1555,test_run,3.0.6,60.0130847703209,
30,ECW,ECW_30_recensioner_070319.wav,j,c ,,,,,0,20,20,29,,,,,,,,,,,,,,,j,1,1.1692383370100288,,,112,001,2019_Mar_15_1555,test_run,3.0.6,60.0130847703209,
144,ENW,ENW_54_lomering_150219.wav,n,c ,,,,,0,21,21,143,,,,,,,,,,,,,,,n,1,0.4525450479995925,,,112,001,2019_Mar_15_1555,test_run,3.0.6,60.0130847703209,
98,ENW,ENW_8_haväras_150219.wav,n,c ,,,,,0,22,22,97,,,,,,,,,,,,,,,n,1,0.7693234870093875,,,112,001,2019_Mar_15_1555,test_run,3.0.6,60.0130847703209,
21,ECW,ECW_21_husera_070319.wav,j,c ,,,,,0,23,23,20,,,,,,,,,,,,,,,j,1,0.41931361400929745,,,112,001,2019_Mar_15_1555,test_run,3.0.6,60.0130847703209,
84,EFW,EFW_54_romaner_070319.wav,j,c ,,,,,0,24,24,83,,,,,,,,,,,,,,,j,1,0.28620772100111935,,,112,001,2019_Mar_15_1555,test_run,3.0.6,60.0130847703209,
167,ENW,ENW_77_somfera_150219.wav,n,c ,,,,,0,25,25,166,,,,,,,,,,,,,,,n,1,0.5025173660105793,,,112,001,2019_Mar_15_1555,test_run,3.0.6,60.0130847703209,
64,EFW,EFW_34_sommar_070319.wav,j,c ,,,,,0,26,26,63,,,,,,,,,,,,,,,j,1,0.43591772599029355,,,112,001,2019_Mar_15_1555,test_run,3.0.6,60.0130847703209,
51,EFW,EFW_21_varierar_070319.wav,j,c ,,,,,0,27,27,50,,,,,,,,,,,,,,,j,1,0.4504977539909305,,,112,001,2019_Mar_15_1555,test_run,3.0.6,60.0130847703209,
46,EFW,EFW_16_lyssna_070319.wav,j,c ,,,,,0,28,28,45,,,,,,,,,,,,,,,j,1,0.48564148299919907,,,112,001,2019_Mar_15_1555,test_run,3.0.6,60.0130847703209,
123,ENW,ENW_33_froamation_150219.wav,n,c ,,,,,0,29,29,122,,,,,,,,,,,,,,,j,0,0.6004803989926586,,,112,001,2019_Mar_15_1555,test_run,3.0.6,60.0130847703209,
121,ENW,ENW_31_romation_150219.wav,n,c ,,,,,0,30,30,120,,,,,,,,,,,,,,,n,1,0.436396995006362,,,112,001,2019_Mar_15_1555,test_run,3.0.6,60.0130847703209,
53,EFW,EFW_23_aamne_070319.wav,j,c ,,,,,0,31,31,52,,,,,,,,,,,,,,,j,1,1.4195011489937315,,,112,001,2019_Mar_15_1555,test_run,3.0.6,60.0130847703209,
117,ENW,ENW_27_lyssvinner_150219.wav,n,c ,,,,,0,32,32,116,,,,,,,,,,,,,,,n,1,0.40261098099290393,,,112,001,2019_Mar_15_1555,test_run,3.0.6,60.0130847703209,
35,EFW,EFW_5_samhaalle_070319.wav,j,c ,,,,,0,33,33,34,,,,,,,,,,,,,,,j,1,0.5363533880008617,,,112,001,2019_Mar_15_1555,test_run,3.0.6,60.0130847703209,
70,EFW,EFW_40_miljoner_070319.wav,j,c ,,,,,0,34,34,69,,,,,,,,,,,,,,,j,1,0.4531115680001676,,,112,001,2019_Mar_15_1555,test_run,3.0.6,60.0130847703209,
72,EFW,EFW_42_naavaron_070319.wav,j,c ,,,,,0,35,35,71,,,,,,,,,,,,,,,j,1,0.419733118993463,,,112,001,2019_Mar_15_1555,test_run,3.0.6,60.0130847703209,
9,ECW,ECW_9_spinna_070319.wav,j,c ,,,,,0,36,36,8,,,,,,,,,,,,,,,j,1,0.31952642899705097,,,112,001,2019_Mar_15_1555,test_run,3.0.6,60.0130847703209,
71,EFW,EFW_41_infinna_070319.wav,j,c ,,,,,0,37,37,70,,,,,,,,,,,,,,,j,1,0.836040233989479,,,112,001,2019_Mar_15_1555,test_run,3.0.6,60.0130847703209,
180,ENW,ENW_90_skrivinar_150219.wav,n,c ,,,,,0,38,38,179,,,,,,,,,,,,,,,n,1,0.9694686580041889,,,112,001,2019_Mar_15_1555,test_run,3.0.6,60.0130847703209,
107,ENW,ENW_17_kopynnor_150219.wav,n,c ,,,,,0,39,39,106,,,,,,,,,,,,,,,n,1,0.45049630900030024,,,112,001,2019_Mar_15_1555,test_run,3.0.6,60.0130847703209,
75,EFW,EFW_45_innanfoer_070319.wav,j,c ,,,,,0,40,40,74,,,,,,,,,,,,,,,j,1,0.6863057360023959,,,112,001,2019_Mar_15_1555,test_run,3.0.6,60.0130847703209,
44,EFW,EFW_14_foersoeken_070319.wav,j,c ,,,,,0,41,41,43,,,,,,,,,,,,,,,j,1,0.18575205400702544,,,112,001,2019_Mar_15_1555,test_run,3.0.6,60.0130847703209,
156,ENW,ENW_66_voarsmenar_150219.wav,n,c ,,,,,0,42,42,155,,,,,,,,,,,,,,,n,1,0.22023297900159378,,,112,001,2019_Mar_15_1555,test_run,3.0.6,60.0130847703209,
127,ENW,ENW_37_spallrivet_150219.wav,n,c ,,,,,0,43,43,126,,,,,,,,,,,,,,,n,1,0.06911869999021292,,,112,001,2019_Mar_15_1555,test_run,3.0.6,60.0130847703209,
133,ENW,ENW_43_axalän_150219.wav,n,c ,,,,,0,44,44,132,,,,,,,,,,,,,,,n,1,0.8031172710034298,,,112,001,2019_Mar_15_1555,test_run,3.0.6,60.0130847703209,
141,ENW,ENW_51_skillare_150219.wav,n,c ,,,,,0,45,45,140,,,,,,,,,,,,,,,n,1,1.4361625849996926,,,112,001,2019_Mar_15_1555,test_run,3.0.6,60.0130847703209,
128,ENW,ENW_38_roakanier_150219.wav,n,c ,,,,,0,46,46,127,,,,,,,,,,,,,,,n,1,0.18612148400279693,,,112,001,2019_Mar_15_1555,test_run,3.0.6,60.0130847703209,
165,ENW,ENW_75_foarskining_150219.wav,n,c ,,,,,0,47,47,164,,,,,,,,,,,,,,,n,1,0.3687212930090027,,,112,001,2019_Mar_15_1555,test_run,3.0.6,60.0130847703209,
86,EFW,EFW_56_mormor_070319.wav,j,c ,,,,,0,48,48,85,,,,,,,,,,,,,,,j,1,1.2698144290043274,,,112,001,2019_Mar_15_1555,test_run,3.0.6,60.0130847703209,
124,ENW,ENW_34_jomera_150219.wav,n,c ,,,,,0,49,49,123,,,,,,,,,,,,,,,n,1,0.5696831620007288,,,112,001,2019_Mar_15_1555,test_run,3.0.6,60.0130847703209,
60,EFW,EFW_30_officiella_070319.wav,j,c ,,,,,0,50,50,59,,,,,,,,,,,,,,,j,1,0.7688066029950278,,,112,001,2019_Mar_15_1555,test_run,3.0.6,60.0130847703209,
1,ECW,ECW_1_anka_070319.wav,j,c ,,,,,0,51,51,0,,,,,,,,,,,,,,,j,1,0.48588398900756147,,,112,001,2019_Mar_15_1555,test_run,3.0.6,60.0130847703209,
24,ECW,ECW_24_fysiker_070319.wav,j,c ,,,,,0,52,52,23,,,,,,,,,,,,,,,j,1,0.13633727900742088,,,112,001,2019_Mar_15_1555,test_run,3.0.6,60.0130847703209,
67,EFW,EFW_37_foervisso_070319.wav,j,c ,,,,,0,53,53,66,,,,,,,,,,,,,,,j,1,0.9856435130059253,,,112,001,2019_Mar_15_1555,test_run,3.0.6,60.0130847703209,
34,EFW,EFW_4_foerminska_070319.wav,j,c ,,,,,0,54,54,33,,,,,,,,,,,,,,,j,1,0.15256281700567342,,,112,001,2019_Mar_15_1555,test_run,3.0.6,60.0130847703209,
177,ENW,ENW_87_kloavare_150219.wav,n,c ,,,,,0,55,55,176,,,,,,,,,,,,,,,n,1,0.4860702589940047,,,112,001,2019_Mar_15_1555,test_run,3.0.6,60.0130847703209,
138,ENW,ENW_48_skyjamsen_150219.wav,n,c ,,,,,0,56,56,137,,,,,,,,,,,,,,,n,1,0.4522253050090512,,,112,001,2019_Mar_15_1555,test_run,3.0.6,60.0130847703209,
78,EFW,EFW_48_varifroan_070319.wav,j,c ,,,,,0,57,57,77,,,,,,,,,,,,,,,j,1,0.4857299119903473,,,112,001,2019_Mar_15_1555,test_run,3.0.6,60.0130847703209,
178,ENW,ENW_88_marsifen_150219.wav,n,c ,,,,,0,58,58,177,,,,,,,,,,,,,,,n,1,0.1694671369914431,,,112,001,2019_Mar_15_1555,test_run,3.0.6,60.0130847703209,
172,ENW,ENW_82_värskappa_150219.wav,n,c ,,,,,0,59,59,171,,,,,,,,,,,,,,,n,1,0.20243065900285728,,,112,001,2019_Mar_15_1555,test_run,3.0.6,60.0130847703209,
159,ENW,ENW_69_mjohusa_150219.wav,n,c ,,,,,0,60,60,158,,,,,,,,,,,,,,,n,1,0.636333418005961,,,112,001,2019_Mar_15_1555,test_run,3.0.6,60.0130847703209,
147,ENW,ENW_57_flovanning_150219.wav,n,c ,,,,,0,61,61,146,,,,,,,,,,,,,,,n,1,0.852143853000598,,,112,001,2019_Mar_15_1555,test_run,3.0.6,60.0130847703209,
88,EFW,EFW_58_examen_070319.wav,j,c ,,,,,0,62,62,87,,,,,,,,,,,,,,,j,1,0.36943969200365245,,,112,001,2019_Mar_15_1555,test_run,3.0.6,60.0130847703209,
134,ENW,ENW_44_inlivna_150219.wav,n,c ,,,,,0,63,63,133,,,,,,,,,,,,,,,n,1,0.5025571559963282,,,112,001,2019_Mar_15_1555,test_run,3.0.6,60.0130847703209,
96,ENW,ENW_6_vilfroaser_150219.wav,n,c ,,,,,0,64,64,95,,,,,,,,,,,,,,,n,1,0.45211044199822936,,,112,001,2019_Mar_15_1555,test_run,3.0.6,60.0130847703209,
160,ENW,ENW_70_roklarner_150219.wav,n,c ,,,,,0,65,65,159,,,,,,,,,,,,,,,n,1,0.33626033600012306,,,112,001,2019_Mar_15_1555,test_run,3.0.6,60.0130847703209,
130,ENW,ENW_40_knipackar_150219.wav,n,c ,,,,,0,66,66,129,,,,,,,,,,,,,,,n,1,0.5836272989981808,,,112,001,2019_Mar_15_1555,test_run,3.0.6,60.0130847703209,
69,EFW,EFW_39_foersvara_070319.wav,j,c ,,,,,0,67,67,68,,,,,,,,,,,,,,,j,1,0.7521577180013992,,,112,001,2019_Mar_15_1555,test_run,3.0.6,60.0130847703209,
18,ECW,ECW_18_morkulla_070319.wav,j,c ,,,,,0,68,68,17,,,,,,,,,,,,,,,j,1,0.8524629419989651,,,112,001,2019_Mar_15_1555,test_run,3.0.6,60.0130847703209,
59,EFW,EFW_29_formen_070319.wav,j,c ,,,,,0,69,69,58,,,,,,,,,,,,,,,j,1,0.1521199870039709,,,112,001,2019_Mar_15_1555,test_run,3.0.6,60.0130847703209,
66,EFW,EFW_36_haarifroan_070319.wav,j,c ,,,,,0,70,70,65,,,,,,,,,,,,,,,j,1,0.7022375579981599,,,112,001,2019_Mar_15_1555,test_run,3.0.6,60.0130847703209,
110,ENW,ENW_20_invonen_150219.wav,n,c ,,,,,0,71,71,109,,,,,,,,,,,,,,,n,1,1.1003226920001907,,,112,001,2019_Mar_15_1555,test_run,3.0.6,60.0130847703209,
37,EFW,EFW_7_sociala_070319.wav,j,c ,,,,,0,72,72,36,,,,,,,,,,,,,,,j,1,0.3188741240010131,,,112,001,2019_Mar_15_1555,test_run,3.0.6,60.0130847703209,
149,ENW,ENW_59_kyrkmänning_150219.wav,n,c ,,,,,0,73,73,148,,,,,,,,,,,,,,,n,1,1.2021215849963482,,,112,001,2019_Mar_15_1555,test_run,3.0.6,60.0130847703209,
47,EFW,EFW_17_januari_070319.wav,j,c ,,,,,0,74,74,46,,,,,,,,,,,,,,,j,1,1.1857136949984124,,,112,001,2019_Mar_15_1555,test_run,3.0.6,60.0130847703209,
40,EFW,EFW_10_laarare_070319.wav,j,c ,,,,,0,75,75,39,,,,,,,,,,,,,,,j,1,0.40283946999988984,,,112,001,2019_Mar_15_1555,test_run,3.0.6,60.0130847703209,
175,ENW,ENW_85_forlinna_150219.wav,n,c ,,,,,0,76,76,174,,,,,,,,,,,,,,,n,1,0.3355510630062781,,,112,001,2019_Mar_15_1555,test_run,3.0.6,60.0130847703209,
39,EFW,EFW_9_infektion_070319.wav,j,c ,,,,,0,77,77,38,,,,,,,,,,,,,,,j,1,0.40252769499784335,,,112,001,2019_Mar_15_1555,test_run,3.0.6,60.0130847703209,
83,EFW,EFW_53_sovrum_070319.wav,j,c ,,,,,0,78,78,82,,,,,,,,,,,,,,,j,1,0.6359645889897365,,,112,001,2019_Mar_15_1555,test_run,3.0.6,60.0130847703209,
49,EFW,EFW_19_roerelse_070319.wav,j,c ,,,,,0,79,79,48,,,,,,,,,,,,,,,j,1,0.369692884007236,,,112,001,2019_Mar_15_1555,test_run,3.0.6,60.0130847703209,
3,ECW,ECW_3_virus_070319.wav,j,c ,,,,,0,80,80,2,,,,,,,,,,,,,,,j,1,0.41957551399536896,,,112,001,2019_Mar_15_1555,test_run,3.0.6,60.0130847703209,
76,EFW,EFW_46_foerhoer_070319.wav,j,c ,,,,,0,81,81,75,,,,,,,,,,,,,,,j,1,0.5501848610001616,,,112,001,2019_Mar_15_1555,test_run,3.0.6,60.0130847703209,
87,EFW,EFW_57_loenerna_070319.wav,j,c ,,,,,0,82,82,86,,,,,,,,,,,,,,,j,1,0.4361060829978669,,,112,001,2019_Mar_15_1555,test_run,3.0.6,60.0130847703209,
126,ENW,ENW_36_skymlosa_150219.wav,n,c ,,,,,0,83,83,125,,,,,,,,,,,,,,,n,1,1.75219802299398,,,112,001,2019_Mar_15_1555,test_run,3.0.6,60.0130847703209,
99,ENW,ENW_9_samlemor_150219.wav,n,c ,,,,,0,84,84,98,,,,,,,,,,,,,,,n,1,0.4859550139954081,,,112,001,2019_Mar_15_1555,test_run,3.0.6,60.0130847703209,
116,ENW,ENW_26_anufera_150219.wav,n,c ,,,,,0,85,85,115,,,,,,,,,,,,,,,n,1,0.3188676579884486,,,112,001,2019_Mar_15_1555,test_run,3.0.6,60.0130847703209,
32,EFW,EFW_2_snarare_070319.wav,j,c ,,,,,0,86,86,31,,,,,,,,,,,,,,,j,1,0.5191500579967396,,,112,001,2019_Mar_15_1555,test_run,3.0.6,60.0130847703209,
101,ENW,ENW_11_fränna_150219.wav,n,c ,,,,,0,87,87,100,,,,,,,,,,,,,,,n,1,0.21934236300876364,,,112,001,2019_Mar_15_1555,test_run,3.0.6,60.0130847703209,
16,ECW,ECW_16_skinskalle_070319.wav,j,c ,,,,,0,88,88,15,,,,,,,,,,,,,,,j,1,0.4362437430099817,,,112,001,2019_Mar_15_1555,test_run,3.0.6,60.0130847703209,
97,ENW,ENW_7_flasera_150219.wav,n,c ,,,,,0,89,89,96,,,,,,,,,,,,,,,n,1,0.5687501939974027,,,112,001,2019_Mar_15_1555,test_run,3.0.6,60.0130847703209,
171,ENW,ENW_81_persifera_150219.wav,n,c ,,,,,0,90,90,170,,,,,,,,,,,,,,,n,1,1.6694165259978035,,,112,001,2019_Mar_15_1555,test_run,3.0.6,60.0130847703209,
146,ENW,ENW_56_lysskarna_150219.wav,n,c ,,,,,0,91,91,145,,,,,,,,,,,,,,,n,1,0.7356295450008474,,,112,001,2019_Mar_15_1555,test_run,3.0.6,60.0130847703209,
52,EFW,EFW_22_normala_070319.wav,j,c ,,,,,0,92,92,51,,,,,,,,,,,,,,,j,1,0.4523770189989591,,,112,001,2019_Mar_15_1555,test_run,3.0.6,60.0130847703209,
106,ENW,ENW_16_rolinkar_150219.wav,n,c ,,,,,0,93,93,105,,,,,,,,,,,,,,,n,1,0.6688292079925304,,,112,001,2019_Mar_15_1555,test_run,3.0.6,60.0130847703209,
23,ECW,ECW_23_maximal_070319.wav,j,c ,,,,,0,94,94,22,,,,,,,,,,,,,,,j,1,0.33581622800556943,,,112,001,2019_Mar_15_1555,test_run,3.0.6,60.0130847703209,
102,ENW,ENW_12_snälmola_150219.wav,n,c ,,,,,0,95,95,101,,,,,,,,,,,,,,,n,1,0.5837018910096958,,,112,001,2019_Mar_15_1555,test_run,3.0.6,60.0130847703209,
7,ECW,ECW_7_marin_070319.wav,j,c ,,,,,0,96,96,6,,,,,,,,,,,,,,,j,1,0.6023629840055946,,,112,001,2019_Mar_15_1555,test_run,3.0.6,60.0130847703209,
93,ENW,ENW_3_vissorens_150219.wav,n,c ,,,,,0,97,97,92,,,,,,,,,,,,,,,n,1,0.4524598540010629,,,112,001,2019_Mar_15_1555,test_run,3.0.6,60.0130847703209,
65,EFW,EFW_35_affaarer_070319.wav,j,c ,,,,,0,98,98,64,,,,,,,,,,,,,,,j,1,0.6533313550025923,,,112,001,2019_Mar_15_1555,test_run,3.0.6,60.0130847703209,
19,ECW,ECW_19_persiska_070319.wav,j,c ,,,,,0,99,99,18,,,,,,,,,,,,,,,j,1,0.7689455779909622,,,112,001,2019_Mar_15_1555,test_run,3.0.6,60.0130847703209,
109,ENW,ENW_19_morloren_150219.wav,n,c ,,,,,0,100,100,108,,,,,,,,,,,,,,,n,1,0.3687573499919381,,,112,001,2019_Mar_15_1555,test_run,3.0.6,60.0130847703209,
153,ENW,ENW_63_femyrisk_150219.wav,n,c ,,,,,0,101,101,152,,,,,,,,,,,,,,,n,1,1.2504989220033167,,,112,001,2019_Mar_15_1555,test_run,3.0.6,60.0130847703209,
100,ENW,ENW_10_skinnamer_150219.wav,n,c ,,,,,0,102,102,99,,,,,,,,,,,,,,,n,1,0.6362052129989024,,,112,001,2019_Mar_15_1555,test_run,3.0.6,60.0130847703209,
61,EFW,EFW_31_jaamfoera_070319.wav,j,c ,,,,,0,103,103,60,,,,,,,,,,,,,,,j,1,0.46903534200100694,,,112,001,2019_Mar_15_1555,test_run,3.0.6,60.0130847703209,
114,ENW,ENW_24_samjoner_150219.wav,n,c ,,,,,0,104,104,113,,,,,,,,,,,,,,,n,1,0.7359681109956,,,112,001,2019_Mar_15_1555,test_run,3.0.6,60.0130847703209,
105,ENW,ENW_15_forfeckla_150219.wav,n,c ,,,,,0,105,105,104,,,,,,,,,,,,,,,n,1,1.1686758559953887,,,112,001,2019_Mar_15_1555,test_run,3.0.6,60.0130847703209,
122,ENW,ENW_32_fonering_150219.wav,n,c ,,,,,0,106,106,121,,,,,,,,,,,,,,,n,1,0.4359095679974416,,,112,001,2019_Mar_15_1555,test_run,3.0.6,60.0130847703209,
48,EFW,EFW_18_nummer_070319.wav,j,c ,,,,,0,107,107,47,,,,,,,,,,,,,,,j,1,0.7858739759976743,,,112,001,2019_Mar_15_1555,test_run,3.0.6,60.0130847703209,
137,ENW,ENW_47_oafläppen_150219.wav,n,c ,,,,,0,108,108,136,,,,,,,,,,,,,,,n,1,0.28592877299524844,,,112,001,2019_Mar_15_1555,test_run,3.0.6,60.0130847703209,
20,ECW,ECW_20_sommarspel_070319.wav,j,c ,,,,,0,109,109,19,,,,,,,,,,,,,,,j,1,0.3523991109977942,,,112,001,2019_Mar_15_1555,test_run,3.0.6,60.0130847703209,
14,ECW,ECW_14_excellens_070319.wav,j,c ,,,,,0,110,110,13,,,,,,,,,,,,,,,j,1,0.6526261480030371,,,112,001,2019_Mar_15_1555,test_run,3.0.6,60.0130847703209,
55,EFW,EFW_25_informera_070319.wav,j,c ,,,,,0,111,111,54,,,,,,,,,,,,,,,j,1,0.4363279719982529,,,112,001,2019_Mar_15_1555,test_run,3.0.6,60.0130847703209,
29,ECW,ECW_29_mejerier_070319.wav,j,c ,,,,,0,112,112,28,,,,,,,,,,,,,,,j,1,0.4690221499913605,,,112,001,2019_Mar_15_1555,test_run,3.0.6,60.0130847703209,
148,ENW,ENW_58_malvossa_150219.wav,n,c ,,,,,0,113,113,147,,,,,,,,,,,,,,,n,1,0.5859605869918596,,,112,001,2019_Mar_15_1555,test_run,3.0.6,60.0130847703209,
120,ENW,ENW_30_sojera_150219.wav,n,c ,,,,,0,114,114,119,,,,,,,,,,,,,,,n,1,0.40051514499646146,,,112,001,2019_Mar_15_1555,test_run,3.0.6,60.0130847703209,
164,ENW,ENW_74_malsera_150219.wav,n,c ,,,,,0,115,115,163,,,,,,,,,,,,,,,n,1,0.33562737800821196,,,112,001,2019_Mar_15_1555,test_run,3.0.6,60.0130847703209,
129,ENW,ENW_39_ljusonar_150219.wav,n,c ,,,,,0,116,116,128,,,,,,,,,,,,,,,n,1,0.6355068239936372,,,112,001,2019_Mar_15_1555,test_run,3.0.6,60.0130847703209,
81,EFW,EFW_51_seminarier_070319.wav,j,c ,,,,,0,117,117,80,,,,,,,,,,,,,,,j,1,0.7529391360003501,,,112,001,2019_Mar_15_1555,test_run,3.0.6,60.0130847703209,
85,EFW,EFW_55_oroar_070319.wav,j,c ,,,,,0,118,118,84,,,,,,,,,,,,,,,j,1,2.186246041994309,,,112,001,2019_Mar_15_1555,test_run,3.0.6,60.0130847703209,
108,ENW,ENW_18_moalursena_150219.wav,n,c ,,,,,0,119,119,107,,,,,,,,,,,,,,,n,1,0.6357260749937268,,,112,001,2019_Mar_15_1555,test_run,3.0.6,60.0130847703209,
38,EFW,EFW_8_samman_070319.wav,j,c ,,,,,0,120,120,37,,,,,,,,,,,,,,,j,1,0.452850664005382,,,112,001,2019_Mar_15_1555,test_run,3.0.6,60.0130847703209,
10,ECW,ECW_10_flisa_070319.wav,j,c ,,,,,0,121,121,9,,,,,,,,,,,,,,,j,1,0.7695772410079371,,,112,001,2019_Mar_15_1555,test_run,3.0.6,60.0130847703209,
63,EFW,EFW_33_elva_070319.wav,j,c ,,,,,0,122,122,62,,,,,,,,,,,,,,,j,1,0.6358010260009905,,,112,001,2019_Mar_15_1555,test_run,3.0.6,60.0130847703209,
27,ECW,ECW_27_panorama_070319.wav,j,c ,,,,,0,123,123,26,,,,,,,,,,,,,,,j,1,0.6858759869937785,,,112,001,2019_Mar_15_1555,test_run,3.0.6,60.0130847703209,
118,ENW,ENW_28_läkermask_150219.wav,n,c ,,,,,0,124,124,117,,,,,,,,,,,,,,,n,1,0.5691303610074101,,,112,001,2019_Mar_15_1555,test_run,3.0.6,60.0130847703209,
158,ENW,ENW_68_presionar_150219.wav,n,c ,,,,,0,125,125,157,,,,,,,,,,,,,,,n,1,0.5521520740003325,,,112,001,2019_Mar_15_1555,test_run,3.0.6,60.0130847703209,
22,ECW,ECW_22_anonyma_070319.wav,j,c ,,,,,0,126,126,21,,,,,,,,,,,,,,,j,1,0.5503270040062489,,,112,001,2019_Mar_15_1555,test_run,3.0.6,60.0130847703209,
155,ENW,ENW_65_hamfylla_150219.wav,n,c ,,,,,0,127,127,154,,,,,,,,,,,,,,,n,1,0.9188544999924488,,,112,001,2019_Mar_15_1555,test_run,3.0.6,60.0130847703209,
115,ENW,ENW_25_affierar_150219.wav,n,c ,,,,,0,128,128,114,,,,,,,,,,,,,,,n,1,0.4856185320095392,,,112,001,2019_Mar_15_1555,test_run,3.0.6,60.0130847703209,
43,EFW,EFW_13_elever_070319.wav,j,c ,,,,,0,129,129,42,,,,,,,,,,,,,,,j,1,0.6194440310064238,,,112,001,2019_Mar_15_1555,test_run,3.0.6,60.0130847703209,
163,ENW,ENW_73_vimmankalla_150219.wav,n,c ,,,,,0,130,130,162,,,,,,,,,,,,,,,n,1,1.0861534520081477,,,112,001,2019_Mar_15_1555,test_run,3.0.6,60.0130847703209,
45,EFW,EFW_15_oeverens_070319.wav,j,c ,,,,,0,131,131,44,,,,,,,,,,,,,,,j,1,0.48565947300812695,,,112,001,2019_Mar_15_1555,test_run,3.0.6,60.0130847703209,
92,ENW,ENW_2_overralka_150219.wav,n,c ,,,,,0,132,132,91,,,,,,,,,,,,,,,n,1,0.9696958819986321,,,112,001,2019_Mar_15_1555,test_run,3.0.6,60.0130847703209,
54,EFW,EFW_24_foersvinner_070319.wav,j,c ,,,,,0,133,133,53,,,,,,,,,,,,,,,j,1,0.5527826900070067,,,112,001,2019_Mar_15_1555,test_run,3.0.6,60.0130847703209,
139,ENW,ENW_49_hälskrena_150219.wav,n,c ,,,,,0,134,134,138,,,,,,,,,,,,,,,n,1,1.052193936004187,,,112,001,2019_Mar_15_1555,test_run,3.0.6,60.0130847703209,
157,ENW,ENW_67_oafreskar_150219.wav,n,c ,,,,,0,135,135,156,,,,,,,,,,,,,,,n,1,0.46907691399974283,,,112,001,2019_Mar_15_1555,test_run,3.0.6,60.0130847703209,
152,ENW,ENW_62_ljullepilja_150219.wav,n,c ,,,,,0,136,136,151,,,,,,,,,,,,,,,n,1,0.4860922999941977,,,112,001,2019_Mar_15_1555,test_run,3.0.6,60.0130847703209,
143,ENW,ENW_53_svarmvisso_150219.wav,n,c ,,,,,0,137,137,142,,,,,,,,,,,,,,,n,1,0.4021484580007382,,,112,001,2019_Mar_15_1555,test_run,3.0.6,60.0130847703209,
150,ENW,ENW_60_lackpenar_150219.wav,n,c ,,,,,0,138,138,149,,,,,,,,,,,,,,,n,1,0.9193302649946418,,,112,001,2019_Mar_15_1555,test_run,3.0.6,60.0130847703209,
95,ENW,ENW_5_spoamisk_150219.wav,n,c ,,,,,0,139,139,94,,,,,,,,,,,,,,,n,1,0.5860934299998917,,,112,001,2019_Mar_15_1555,test_run,3.0.6,60.0130847703209,
80,EFW,EFW_50_snaalla_070319.wav,j,c ,,,,,0,140,140,79,,,,,,,,,,,,,,,j,1,0.45305150900094304,,,112,001,2019_Mar_15_1555,test_run,3.0.6,60.0130847703209,
42,EFW,EFW_12_foeremoal_070319.wav,j,c ,,,,,0,141,141,41,,,,,,,,,,,,,,,j,1,0.4359165959904203,,,112,001,2019_Mar_15_1555,test_run,3.0.6,60.0130847703209,
103,ENW,ENW_13_forvaron_150219.wav,n,c ,,,,,0,142,142,102,,,,,,,,,,,,,,,n,1,0.36934899300104007,,,112,001,2019_Mar_15_1555,test_run,3.0.6,60.0130847703209,
132,ENW,ENW_42_hamsforing_150219.wav,n,c ,,,,,0,143,143,131,,,,,,,,,,,,,,,n,1,0.219652378000319,,,112,001,2019_Mar_15_1555,test_run,3.0.6,60.0130847703209,
166,ENW,ENW_76_omfläskor_150219.wav,n,c ,,,,,0,144,144,165,,,,,,,,,,,,,,,n,1,0.385657776001608,,,112,001,2019_Mar_15_1555,test_run,3.0.6,60.0130847703209,
173,ENW,ENW_83_fyrskovar_150219.wav,n,c ,,,,,0,145,145,172,,,,,,,,,,,,,,,n,1,0.5023110210022423,,,112,001,2019_Mar_15_1555,test_run,3.0.6,60.0130847703209,
57,EFW,EFW_27_analysera_070319.wav,j,c ,,,,,0,146,146,56,,,,,,,,,,,,,,,j,1,0.4358249490032904,,,112,001,2019_Mar_15_1555,test_run,3.0.6,60.0130847703209,
174,ENW,ENW_84_hurmarna_150219.wav,n,c ,,,,,0,147,147,173,,,,,,,,,,,,,,,n,1,0.28591257899824996,,,112,001,2019_Mar_15_1555,test_run,3.0.6,60.0130847703209,
17,ECW,ECW_17_majonnaas_070319.wav,j,c ,,,,,0,148,148,16,,,,,,,,,,,,,,,j,1,0.3027305739960866,,,112,001,2019_Mar_15_1555,test_run,3.0.6,60.0130847703209,
2,ECW,ECW_2_hinna_070319.wav,j,c ,,,,,0,149,149,1,,,,,,,,,,,,,,,j,1,0.4687481450091582,,,112,001,2019_Mar_15_1555,test_run,3.0.6,60.0130847703209,
145,ENW,ENW_55_invaskin_150219.wav,n,c ,,,,,0,150,150,144,,,,,,,,,,,,,,,n,1,0.5689413369982503,,,112,001,2019_Mar_15_1555,test_run,3.0.6,60.0130847703209,
56,EFW,EFW_26_armarna_070319.wav,j,c ,,,,,0,151,151,55,,,,,,,,,,,,,,,j,1,0.46908274199813604,,,112,001,2019_Mar_15_1555,test_run,3.0.6,60.0130847703209,
4,ECW,ECW_4_skraalla_070319.wav,j,c ,,,,,0,152,152,3,,,,,,,,,,,,,,,j,1,0.8195418840041384,,,112,001,2019_Mar_15_1555,test_run,3.0.6,60.0130847703209,
82,EFW,EFW_52_framhoalla_070319.wav,j,c ,,,,,0,153,153,81,,,,,,,,,,,,,,,j,1,2.452951346989721,,,112,001,2019_Mar_15_1555,test_run,3.0.6,60.0130847703209,
104,ENW,ENW_14_kärmenor_150219.wav,n,c ,,,,,0,154,154,103,,,,,,,,,,,,,,,n,1,0.6838294019980822,,,112,001,2019_Mar_15_1555,test_run,3.0.6,60.0130847703209,
77,EFW,EFW_47_invoanare_070319.wav,j,c ,,,,,0,155,155,76,,,,,,,,,,,,,,,j,1,1.50260761899699,,,112,001,2019_Mar_15_1555,test_run,3.0.6,60.0130847703209,
179,ENW,ENW_89_mikenspoan_150219.wav,n,c ,,,,,0,156,156,178,,,,,,,,,,,,,,,n,1,0.7029122829990229,,,112,001,2019_Mar_15_1555,test_run,3.0.6,60.0130847703209,
15,ECW,ECW_15_tjuvarna_070319.wav,j,c ,,,,,0,157,157,14,,,,,,,,,,,,,,,j,1,0.4531761299876962,,,112,001,2019_Mar_15_1555,test_run,3.0.6,60.0130847703209,
136,ENW,ENW_46_pommera_150219.wav,n,c ,,,,,0,158,158,135,,,,,,,,,,,,,,,n,1,0.553053611991345,,,112,001,2019_Mar_15_1555,test_run,3.0.6,60.0130847703209,
62,EFW,EFW_32_fyller_070319.wav,j,c ,,,,,0,159,159,61,,,,,,,,,,,,,,,n,0,0.3692972069984535,,,112,001,2019_Mar_15_1555,test_run,3.0.6,60.0130847703209,
36,EFW,EFW_6_massa_070319.wav,j,c ,,,,,0,160,160,35,,,,,,,,,,,,,,,j,1,0.7696892600069987,,,112,001,2019_Mar_15_1555,test_run,3.0.6,60.0130847703209,
25,ECW,ECW_25_oeverfoeras_070319.wav,j,c ,,,,,0,161,161,24,,,,,,,,,,,,,,,j,1,2.0193405030004214,,,112,001,2019_Mar_15_1555,test_run,3.0.6,60.0130847703209,
135,ENW,ENW_45_fammoarens_150219.wav,n,c ,,,,,0,162,162,134,,,,,,,,,,,,,,,n,1,0.5193410240026424,,,112,001,2019_Mar_15_1555,test_run,3.0.6,60.0130847703209,
90,EFW,EFW_60_insulin_070319.wav,j,c ,,,,,0,163,163,89,,,,,,,,,,,,,,,j,1,0.3862240739981644,,,112,001,2019_Mar_15_1555,test_run,3.0.6,60.0130847703209,
112,ENW,ENW_22_fjäserna_150219.wav,n,c ,,,,,0,164,164,111,,,,,,,,,,,,,,,n,1,0.3188559849950252,,,112,001,2019_Mar_15_1555,test_run,3.0.6,60.0130847703209,
8,ECW,ECW_8_fryshus_070319.wav,j,c ,,,,,0,165,165,7,,,,,,,,,,,,,,,j,1,0.3526201939966995,,,112,001,2019_Mar_15_1555,test_run,3.0.6,60.0130847703209,
12,ECW,ECW_12_moehippa_070319.wav,j,c ,,,,,0,166,166,11,,,,,,,,,,,,,,,j,1,0.6356044080021093,,,112,001,2019_Mar_15_1555,test_run,3.0.6,60.0130847703209,
68,EFW,EFW_38_foerefoell_070319.wav,j,c ,,,,,0,167,167,67,,,,,,,,,,,,,,,j,1,0.7838090080040274,,,112,001,2019_Mar_15_1555,test_run,3.0.6,60.0130847703209,
142,ENW,ENW_52_filofyll_150219.wav,n,c ,,,,,0,168,168,141,,,,,,,,,,,,,,,n,1,0.4357020180032123,,,112,001,2019_Mar_15_1555,test_run,3.0.6,60.0130847703209,
91,ENW,ENW_1_norsimerar_150219.wav,n,c ,,,,,0,169,169,90,,,,,,,,,,,,,,,n,1,1.368926807990647,,,112,001,2019_Mar_15_1555,test_run,3.0.6,60.0130847703209,
162,ENW,ENW_72_urskecken_150219.wav,n,c ,,,,,0,170,170,161,,,,,,,,,,,,,,,n,1,0.2856569469877286,,,112,001,2019_Mar_15_1555,test_run,3.0.6,60.0130847703209,
161,ENW,ENW_71_forskäckla_150219.wav,n,c ,,,,,0,171,171,160,,,,,,,,,,,,,,,n,1,0.25225045600382145,,,112,001,2019_Mar_15_1555,test_run,3.0.6,60.0130847703209,
119,ENW,ENW_29_uppskira_150219.wav,n,c ,,,,,0,172,172,118,,,,,,,,,,,,,,,n,1,0.6528618979937164,,,112,001,2019_Mar_15_1555,test_run,3.0.6,60.0130847703209,
41,EFW,EFW_11_maanniskor_070319.wav,j,c ,,,,,0,173,173,40,,,,,,,,,,,,,,,j,1,0.38563375499506947,,,112,001,2019_Mar_15_1555,test_run,3.0.6,60.0130847703209,
170,ENW,ENW_80_tjarfera_150219.wav,n,c ,,,,,0,174,174,169,,,,,,,,,,,,,,,n,1,0.7189085510035511,,,112,001,2019_Mar_15_1555,test_run,3.0.6,60.0130847703209,
33,EFW,EFW_3_familjen_070319.wav,j,c ,,,,,0,175,175,32,,,,,,,,,,,,,,,j,1,0.3838501780119259,,,112,001,2019_Mar_15_1555,test_run,3.0.6,60.0130847703209,
28,ECW,ECW_28_maskinerna_070319.wav,j,c ,,,,,0,176,176,27,,,,,,,,,,,,,,,j,1,0.43538762599928305,,,112,001,2019_Mar_15_1555,test_run,3.0.6,60.0130847703209,
113,ENW,ENW_23_allsänning_150219.wav,n,c ,,,,,0,177,177,112,,,,,,,,,,,,,,,n,1,0.25246310798684135,,,112,001,2019_Mar_15_1555,test_run,3.0.6,60.0130847703209,
58,EFW,EFW_28_olja_070319.wav,j,c ,,,,,0,178,178,57,,,,,,,,,,,,,,,j,1,0.6355861490010284,,,112,001,2019_Mar_15_1555,test_run,3.0.6,60.0130847703209,
94,ENW,ENW_4_kyllfaren_150219.wav,n,c ,,,,,0,179,179,93,,,,,,,,,,,,,,,n,1,0.6689261120045558,,,112,001,2019_Mar_15_1555,test_run,3.0.6,60.0130847703209,
30,TTF,TTF_30_slatt_070319.wav,,,1,rating_d_final.csv,d,final,,,,,0,0,0,0,0,0,0,0,0,0,0,29,,,,,,2,10.504,112,001,2019_Mar_15_1555,test_run,3.0.6,60.0130847703209,
4,TDF,TDF_4_rod_070319.wav,,,1,rating_d_final.csv,d,final,,,,,0,0,0,0,0,0,0,0,0,1,1,3,,,,,,7,1.487,112,001,2019_Mar_15_1555,test_run,3.0.6,60.0130847703209,
26,TTF,TTF_26_rymt_070319.wav,,,1,rating_d_final.csv,d,final,,,,,0,0,0,0,0,0,0,0,0,2,2,25,,,,,,6,3.17,112,001,2019_Mar_15_1555,test_run,3.0.6,60.0130847703209,
29,TTF,TTF_29_bett_070319.wav,,,1,rating_d_final.csv,d,final,,,,,0,0,0,0,0,0,0,0,0,3,3,28,,,,,,1,4.637,112,001,2019_Mar_15_1555,test_run,3.0.6,60.0130847703209,
12,TDF,TDF_12_smed_070319.wav,,,1,rating_d_final.csv,d,final,,,,,0,0,0,0,0,0,0,0,0,4,4,11,,,,,,7,1.521,112,001,2019_Mar_15_1555,test_run,3.0.6,60.0130847703209,
18,TTF,TTF_18_skjut_070319.wav,,,1,rating_d_final.csv,d,final,,,,,0,0,0,0,0,0,0,0,0,5,5,17,,,,,,1,1.837,112,001,2019_Mar_15_1555,test_run,3.0.6,60.0130847703209,
11,TDF,TDF_11_svid_070319.wav,,,1,rating_d_final.csv,d,final,,,,,0,0,0,0,0,0,0,0,0,6,6,10,,,,,,7,1.271,112,001,2019_Mar_15_1555,test_run,3.0.6,60.0130847703209,
28,TTF,TTF_28_brant_070319.wav,,,1,rating_d_final.csv,d,final,,,,,0,0,0,0,0,0,0,0,0,7,7,27,,,,,,5,2.154,112,001,2019_Mar_15_1555,test_run,3.0.6,60.0130847703209,
2,TDF,TDF_2_ved_070319.wav,,,1,rating_d_final.csv,d,final,,,,,0,0,0,0,0,0,0,0,0,8,8,1,,,,,,7,1.77,112,001,2019_Mar_15_1555,test_run,3.0.6,60.0130847703209,
10,TDF,TDF_10_brod_070319.wav,,,1,rating_d_final.csv,d,final,,,,,0,0,0,0,0,0,0,0,0,9,9,9,,,,,,7,0.954,112,001,2019_Mar_15_1555,test_run,3.0.6,60.0130847703209,
7,TDF,TDF_7_vid_070319.wav,,,1,rating_d_final.csv,d,final,,,,,0,0,0,0,0,0,0,0,0,10,10,6,,,,,,7,1.054,112,001,2019_Mar_15_1555,test_run,3.0.6,60.0130847703209,
15,TDF,TDF_15_nod_070319.wav,,,1,rating_d_final.csv,d,final,,,,,0,0,0,0,0,0,0,0,0,11,11,14,,,,,,7,1.087,112,001,2019_Mar_15_1555,test_run,3.0.6,60.0130847703209,
3,TDF,TDF_3_raad_070319.wav,,,1,rating_d_final.csv,d,final,,,,,0,0,0,0,0,0,0,0,0,12,12,2,,,,,,6,1.355,112,001,2019_Mar_15_1555,test_run,3.0.6,60.0130847703209,
25,TTF,TTF_25_synt_070319.wav,,,1,rating_d_final.csv,d,final,,,,,0,0,0,0,0,0,0,0,0,13,13,24,,,,,,4,1.553,112,001,2019_Mar_15_1555,test_run,3.0.6,60.0130847703209,
32,TTF,TTF_32_hoart_070319.wav,,,1,rating_d_final.csv,d,final,,,,,0,0,0,0,0,0,0,0,0,14,14,31,,,,,,1,1.77,112,001,2019_Mar_15_1555,test_run,3.0.6,60.0130847703209,
27,TTF,TTF_27_sant_070319.wav,,,1,rating_d_final.csv,d,final,,,,,0,0,0,0,0,0,0,0,0,15,15,26,,,,,,1,0.854,112,001,2019_Mar_15_1555,test_run,3.0.6,60.0130847703209,
6,TDF,TDF_6_voard_070319.wav,,,1,rating_d_final.csv,d,final,,,,,0,0,0,0,0,0,0,0,0,16,16,5,,,,,,6,0.821,112,001,2019_Mar_15_1555,test_run,3.0.6,60.0130847703209,
23,TTF,TTF_23_hut_070319.wav,,,1,rating_d_final.csv,d,final,,,,,0,0,0,0,0,0,0,0,0,17,17,22,,,,,,1,1.021,112,001,2019_Mar_15_1555,test_run,3.0.6,60.0130847703209,
1,TDF,TDF_1_rid_070319.wav,,,1,rating_d_final.csv,d,final,,,,,0,0,0,0,0,0,0,0,0,18,18,0,,,,,,7,1.02,112,001,2019_Mar_15_1555,test_run,3.0.6,60.0130847703209,
14,TDF,TDF_14_mod_070319.wav,,,1,rating_d_final.csv,d,final,,,,,0,0,0,0,0,0,0,0,0,19,19,13,,,,,,4,2.47,112,001,2019_Mar_15_1555,test_run,3.0.6,60.0130847703209,
21,TTF,TTF_21_gjoet_070319.wav,,,1,rating_d_final.csv,d,final,,,,,0,0,0,0,0,0,0,0,0,20,20,20,,,,,,2,1.67,112,001,2019_Mar_15_1555,test_run,3.0.6,60.0130847703209,
20,TTF,TTF_20_got_070319.wav,,,1,rating_d_final.csv,d,final,,,,,0,0,0,0,0,0,0,0,0,21,21,19,,,,,,4,0.87,112,001,2019_Mar_15_1555,test_run,3.0.6,60.0130847703209,
17,TTF,TTF_17_sket_070319.wav,,,1,rating_d_final.csv,d,final,,,,,0,0,0,0,0,0,0,0,0,22,22,16,,,,,,4,0.871,112,001,2019_Mar_15_1555,test_run,3.0.6,60.0130847703209,
31,TTF,TTF_31_brott_070319.wav,,,1,rating_d_final.csv,d,final,,,,,0,0,0,0,0,0,0,0,0,23,23,30,,,,,,1,0.788,112,001,2019_Mar_15_1555,test_run,3.0.6,60.0130847703209,
16,TDF,TDF_16_fond_070319.wav,,,1,rating_d_final.csv,d,final,,,,,0,0,0,0,0,0,0,0,0,24,24,15,,,,,,7,0.838,112,001,2019_Mar_15_1555,test_run,3.0.6,60.0130847703209,
19,TTF,TTF_19_skoet_070319.wav,,,1,rating_d_final.csv,d,final,,,,,0,0,0,0,0,0,0,0,0,25,25,18,,,,,,2,1.954,112,001,2019_Mar_15_1555,test_run,3.0.6,60.0130847703209,
24,TTF,TTF_24_smit_070319.wav,,,1,rating_d_final.csv,d,final,,,,,0,0,0,0,0,0,0,0,0,26,26,23,,,,,,5,0.937,112,001,2019_Mar_15_1555,test_run,3.0.6,60.0130847703209,
5,TDF,TDF_5_voad_070319.wav,,,1,rating_d_final.csv,d,final,,,,,0,0,0,0,0,0,0,0,0,27,27,4,,,,,,5,2.02,112,001,2019_Mar_15_1555,test_run,3.0.6,60.0130847703209,
8,TDF,TDF_8_nod_070319.wav,,,1,rating_d_final.csv,d,final,,,,,0,0,0,0,0,0,0,0,0,28,28,7,,,,,,7,0.821,112,001,2019_Mar_15_1555,test_run,3.0.6,60.0130847703209,
22,TTF,TTF_22_het_070319.wav,,,1,rating_d_final.csv,d,final,,,,,0,0,0,0,0,0,0,0,0,29,29,21,,,,,,1,0.937,112,001,2019_Mar_15_1555,test_run,3.0.6,60.0130847703209,
9,TDF,TDF_9_bod_070319.wav,,,1,rating_d_final.csv,d,final,,,,,0,0,0,0,0,0,0,0,0,30,30,8,,,,,,5,0.971,112,001,2019_Mar_15_1555,test_run,3.0.6,60.0130847703209,
13,TDF,TDF_13_ljud_070319.wav,,,1,rating_d_final.csv,d,final,,,,,0,0,0,0,0,0,0,0,0,31,31,12,,,,,,7,1.071,112,001,2019_Mar_15_1555,test_run,3.0.6,60.0130847703209,
32,TDF,TDF_32_hoard_070319.wav,,,1,rating_t_final.csv,t,final,,,,,0,0,0,0,0,1,1,1,0,0,0,31,,,,,,1,1.171,112,001,2019_Mar_15_1555,test_run,3.0.6,60.0130847703209,
23,TDF,TDF_23_hud_070319.wav,,,1,rating_t_final.csv,t,final,,,,,0,0,0,0,0,1,1,1,0,1,1,22,,,,,,1,0.837,112,001,2019_Mar_15_1555,test_run,3.0.6,60.0130847703209,
24,TDF,TDF_24_smid_070319.wav,,,1,rating_t_final.csv,t,final,,,,,0,0,0,0,0,1,1,1,0,2,2,23,,,,,,1,1.204,112,001,2019_Mar_15_1555,test_run,3.0.6,60.0130847703209,
6,TTF,TTF_6_voart_070319.wav,,,1,rating_t_final.csv,t,final,,,,,0,0,0,0,0,1,1,1,0,3,3,5,,,,,,5,1.77,112,001,2019_Mar_15_1555,test_run,3.0.6,60.0130847703209,
3,TTF,TTF_3_raat_070319.wav,,,1,rating_t_final.csv,t,final,,,,,0,0,0,0,0,1,1,1,0,4,4,2,,,,,,4,6.304,112,001,2019_Mar_15_1555,test_run,3.0.6,60.0130847703209,
14,TTF,TTF_14_mot_070319.wav,,,1,rating_t_final.csv,t,final,,,,,0,0,0,0,0,1,1,1,0,5,5,13,,,,,,7,1.288,112,001,2019_Mar_15_1555,test_run,3.0.6,60.0130847703209,
2,TTF,TTF_2_vet_070319.wav,,,1,rating_t_final.csv,t,final,,,,,0,0,0,0,0,1,1,1,0,6,6,1,,,,,,7,0.821,112,001,2019_Mar_15_1555,test_run,3.0.6,60.0130847703209,
19,TDF,TDF_19_sjod_070319.wav,,,1,rating_t_final.csv,t,final,,,,,0,0,0,0,0,1,1,1,0,7,7,18,,,,,,6,0.771,112,001,2019_Mar_15_1555,test_run,3.0.6,60.0130847703209,
21,TDF,TDF_21_ljod _070319.wav,,,1,rating_t_final.csv,t,final,,,,,0,0,0,0,0,1,1,1,0,8,8,20,,,,,,4,0.704,112,001,2019_Mar_15_1555,test_run,3.0.6,60.0130847703209,
10,TTF,TTF_10_broet_070319.wav,,,1,rating_t_final.csv,t,final,,,,,0,0,0,0,0,1,1,1,0,9,9,9,,,,,,6,4.371,112,001,2019_Mar_15_1555,test_run,3.0.6,60.0130847703209,
13,TTF,TTF_13_gjut_070319.wav,,,1,rating_t_final.csv,t,final,,,,,0,0,0,0,0,1,1,1,0,10,10,12,,,,,,2,4.337,112,001,2019_Mar_15_1555,test_run,3.0.6,60.0130847703209,
7,TTF,TTF_7_vit_070319.wav,,,1,rating_t_final.csv,t,final,,,,,0,0,0,0,0,1,1,1,0,11,11,6,,,,,,2,3.054,112,001,2019_Mar_15_1555,test_run,3.0.6,60.0130847703209,
5,TTF,TTF_5_voat_070319.wav,,,1,rating_t_final.csv,t,final,,,,,0,0,0,0,0,1,1,1,0,12,12,4,,,,,,7,3.304,112,001,2019_Mar_15_1555,test_run,3.0.6,60.0130847703209,
17,TDF,TDF_17_sked_070319.wav,,,1,rating_t_final.csv,t,final,,,,,0,0,0,0,0,1,1,1,0,13,13,16,,,,,,1,1.836,112,001,2019_Mar_15_1555,test_run,3.0.6,60.0130847703209,
29,TDF,TDF_29_baadd_070319.wav,,,1,rating_t_final.csv,t,final,,,,,0,0,0,0,0,1,1,1,0,14,14,28,,,,,,2,1.488,112,001,2019_Mar_15_1555,test_run,3.0.6,60.0130847703209,
12,TTF,TTF_12_smet_070319.wav,,,1,rating_t_final.csv,t,final,,,,,0,0,0,0,0,1,1,1,0,15,15,11,,,,,,7,0.755,112,001,2019_Mar_15_1555,test_run,3.0.6,60.0130847703209,
25,TDF,TDF_25_synd_070319.wav,,,1,rating_t_final.csv,t,final,,,,,0,0,0,0,0,1,1,1,0,16,16,24,,,,,,1,0.921,112,001,2019_Mar_15_1555,test_run,3.0.6,60.0130847703209,
15,TTF,TTF_15_not_070319.wav,,,1,rating_t_final.csv,t,final,,,,,0,0,0,0,0,1,1,1,0,17,17,14,,,,,,6,1.337,112,001,2019_Mar_15_1555,test_run,3.0.6,60.0130847703209,
18,TDF,TDF_18_sjud_070319.wav,,,1,rating_t_final.csv,t,final,,,,,0,0,0,0,0,1,1,1,0,18,18,17,,,,,,1,2.187,112,001,2019_Mar_15_1555,test_run,3.0.6,60.0130847703209,
27,TDF,TDF_27_sand_070319.wav,,,1,rating_t_final.csv,t,final,,,,,0,0,0,0,0,1,1,1,0,19,19,26,,,,,,6,2.671,112,001,2019_Mar_15_1555,test_run,3.0.6,60.0130847703209,
31,TDF,TDF_31_brodd_070319.wav,,,1,rating_t_final.csv,t,final,,,,,0,0,0,0,0,1,1,1,0,20,20,30,,,,,,7,1.521,112,001,2019_Mar_15_1555,test_run,3.0.6,60.0130847703209,
8,TTF,TTF_8_noet_070319.wav,,,1,rating_t_final.csv,t,final,,,,,0,0,0,0,0,1,1,1,0,21,21,7,,,,,,6,2.955,112,001,2019_Mar_15_1555,test_run,3.0.6,60.0130847703209,
11,TTF,TTF_11_svit_070319.wav,,,1,rating_t_final.csv,t,final,,,,,0,0,0,0,0,1,1,1,0,22,22,10,,,,,,7,0.753,112,001,2019_Mar_15_1555,test_run,3.0.6,60.0130847703209,
16,TTF,TTF_16_font_070319.wav,,,1,rating_t_final.csv,t,final,,,,,0,0,0,0,0,1,1,1,0,23,23,15,,,,,,2,2.804,112,001,2019_Mar_15_1555,test_run,3.0.6,60.0130847703209,
22,TDF,TDF_22_hed_070319.wav,,,1,rating_t_final.csv,t,final,,,,,0,0,0,0,0,1,1,1,0,24,24,21,,,,,,1,0.604,112,001,2019_Mar_15_1555,test_run,3.0.6,60.0130847703209,
1,TTF,TTF_1_rit_070319.wav,,,1,rating_t_final.csv,t,final,,,,,0,0,0,0,0,1,1,1,0,25,25,0,,,,,,7,0.954,112,001,2019_Mar_15_1555,test_run,3.0.6,60.0130847703209,
26,TDF,TDF_26_rymd_070319.wav,,,1,rating_t_final.csv,t,final,,,,,0,0,0,0,0,1,1,1,0,26,26,25,,,,,,2,4.871,112,001,2019_Mar_15_1555,test_run,3.0.6,60.0130847703209,
28,TDF,TDF_28_brand_070319.wav,,,1,rating_t_final.csv,t,final,,,,,0,0,0,0,0,1,1,1,0,27,27,27,,,,,,1,0.787,112,001,2019_Mar_15_1555,test_run,3.0.6,60.0130847703209,
20,TDF,TDF_20_god_070319.wav,,,1,rating_t_final.csv,t,final,,,,,0,0,0,0,0,1,1,1,0,28,28,19,,,,,,1,0.686,112,001,2019_Mar_15_1555,test_run,3.0.6,60.0130847703209,
30,TDF,TDF_30_sladd_070319.wav,,,1,rating_t_final.csv,t,final,,,,,0,0,0,0,0,1,1,1,0,29,29,29,,,,,,1,0.67,112,001,2019_Mar_15_1555,test_run,3.0.6,60.0130847703209,
4,TTF,TTF_4_roet_070319.wav,,,1,rating_t_final.csv,t,final,,,,,0,0,0,0,0,1,1,1,0,30,30,3,,,,,,1,3.771,112,001,2019_Mar_15_1555,test_run,3.0.6,60.0130847703209,
9,TTF,TTF_9_bot_070319.wav,,,1,rating_t_final.csv,t,final,,,,,0,0,0,0,0,1,1,1,0,31,31,8,,,,,,2,2.754,112,001,2019_Mar_15_1555,test_run,3.0.6,60.0130847703209,
25,TDI,TDI_25_daar_150219.wav,,,2,rating_t_initial.csv,t,initial,,,,,0,1,1,1,0,0,0,1,0,0,0,24,,,,,,1,1.87,112,001,2019_Mar_15_1555,test_run,3.0.6,60.0130847703209,
20,TDI,TDI_20_dur_150219.wav,,,2,rating_t_initial.csv,t,initial,,,,,0,1,1,1,0,0,0,1,0,1,1,19,,,,,,1,2.154,112,001,2019_Mar_15_1555,test_run,3.0.6,60.0130847703209,
15,TDI,TDI_15_dom_150219.wav,,,2,rating_t_initial.csv,t,initial,,,,,0,1,1,1,0,0,0,1,0,2,2,14,,,,,,1,4.221,112,001,2019_Mar_15_1555,test_run,3.0.6,60.0130847703209,
26,TDI,TDI_26_doe_150219.wav,,,2,rating_t_initial.csv,t,initial,,,,,0,1,1,1,0,0,0,1,0,3,3,25,,,,,,1,0.837,112,001,2019_Mar_15_1555,test_run,3.0.6,60.0130847703209,
3,TTI,TTI_3_tal_150219.wav,,,2,rating_t_initial.csv,t,initial,,,,,0,1,1,1,0,0,0,1,0,4,4,2,,,,,,6,1.937,112,001,2019_Mar_15_1555,test_run,3.0.6,60.0130847703209,
5,TTI,TTI_5_tass_150219.wav,,,2,rating_t_initial.csv,t,initial,,,,,0,1,1,1,0,0,0,1,0,5,5,4,,,,,,2,0.554,112,001,2019_Mar_15_1555,test_run,3.0.6,60.0130847703209,
17,TDI,TDI_17_dopp_150219.wav,,,2,rating_t_initial.csv,t,initial,,,,,0,1,1,1,0,0,0,1,0,6,6,16,,,,,,1,0.738,112,001,2019_Mar_15_1555,test_run,3.0.6,60.0130847703209,
16,TDI,TDI_16_don_150219.wav,,,2,rating_t_initial.csv,t,initial,,,,,0,1,1,1,0,0,0,1,0,7,7,15,,,,,,1,0.57,112,001,2019_Mar_15_1555,test_run,3.0.6,60.0130847703209,
2,TTI,TTI_2_tagg_150219.wav,,,2,rating_t_initial.csv,t,initial,,,,,0,1,1,1,0,0,0,1,0,8,8,1,,,,,,4,4.354,112,001,2019_Mar_15_1555,test_run,3.0.6,60.0130847703209,
4,TTI,TTI_4_tam_150219.wav,,,2,rating_t_initial.csv,t,initial,,,,,0,1,1,1,0,0,0,1,0,9,9,3,,,,,,7,2.02,112,001,2019_Mar_15_1555,test_run,3.0.6,60.0130847703209,
11,TTI,TTI_11_tipp_150219.wav,,,2,rating_t_initial.csv,t,initial,,,,,0,1,1,1,0,0,0,1,0,10,10,10,,,,,,7,0.804,112,001,2019_Mar_15_1555,test_run,3.0.6,60.0130847703209,
27,TDI,TDI_27_doem_edit_150219.wav,,,2,rating_t_initial.csv,t,initial,,,,,0,1,1,1,0,0,0,1,0,11,11,26,,,,,,1,1.07,112,001,2019_Mar_15_1555,test_run,3.0.6,60.0130847703209,
8,TTI,TTI_8_tia_150219.wav,,,2,rating_t_initial.csv,t,initial,,,,,0,1,1,1,0,0,0,1,0,12,12,7,,,,,,7,0.837,112,001,2019_Mar_15_1555,test_run,3.0.6,60.0130847703209,
12,TTI,TTI_12_toa_150219.wav,,,2,rating_t_initial.csv,t,initial,,,,,0,1,1,1,0,0,0,1,0,13,13,11,,,,,,7,1.088,112,001,2019_Mar_15_1555,test_run,3.0.6,60.0130847703209,
9,TTI,TTI_9_till_150219.wav,,,2,rating_t_initial.csv,t,initial,,,,,0,1,1,1,0,0,0,1,0,14,14,8,,,,,,7,0.871,112,001,2019_Mar_15_1555,test_run,3.0.6,60.0130847703209,
14,TTI,TTI_14_tok_150219.wav,,,2,rating_t_initial.csv,t,initial,,,,,0,1,1,1,0,0,0,1,0,15,15,13,,,,,,7,0.62,112,001,2019_Mar_15_1555,test_run,3.0.6,60.0130847703209,
10,TTI,TTI_10_titt_150219.wav,,,2,rating_t_initial.csv,t,initial,,,,,0,1,1,1,0,0,0,1,0,16,16,9,,,,,,7,0.703,112,001,2019_Mar_15_1555,test_run,3.0.6,60.0130847703209,
1,TTI,TTI_1_tag_150219.wav,,,2,rating_t_initial.csv,t,initial,,,,,0,1,1,1,0,0,0,1,0,17,17,0,,,,,,1,1.037,112,001,2019_Mar_15_1555,test_run,3.0.6,60.0130847703209,
7,TTI,TTI_7_tenn_150219.wav,,,2,rating_t_initial.csv,t,initial,,,,,0,1,1,1,0,0,0,1,0,18,18,6,,,,,,1,1.253,112,001,2019_Mar_15_1555,test_run,3.0.6,60.0130847703209,
6,TTI,TTI_6_teg_150219.wav,,,2,rating_t_initial.csv,t,initial,,,,,0,1,1,1,0,0,0,1,0,19,19,5,,,,,,1,2.42,112,001,2019_Mar_15_1555,test_run,3.0.6,60.0130847703209,
19,TDI,TDI_19_dun_150219.wav,,,2,rating_t_initial.csv,t,initial,,,,,0,1,1,1,0,0,0,1,0,20,20,18,,,,,,1,0.971,112,001,2019_Mar_15_1555,test_run,3.0.6,60.0130847703209,
18,TDI,TDI_18_dum_150219.wav,,,2,rating_t_initial.csv,t,initial,,,,,0,1,1,1,0,0,0,1,0,21,21,17,,,,,,1,1.239,112,001,2019_Mar_15_1555,test_run,3.0.6,60.0130847703209,
22,TDI,TDI_22_dy_150219.wav,,,2,rating_t_initial.csv,t,initial,,,,,0,1,1,1,0,0,0,1,0,22,22,21,,,,,,1,1.37,112,001,2019_Mar_15_1555,test_run,3.0.6,60.0130847703209,
21,TDI,TDI_21_dugg_150219.wav,,,2,rating_t_initial.csv,t,initial,,,,,0,1,1,1,0,0,0,1,0,23,23,20,,,,,,1,1.317,112,001,2019_Mar_15_1555,test_run,3.0.6,60.0130847703209,
24,TDI,TDI_24_daack_150219.wav,,,2,rating_t_initial.csv,t,initial,,,,,0,1,1,1,0,0,0,1,0,24,24,23,,,,,,1,0.904,112,001,2019_Mar_15_1555,test_run,3.0.6,60.0130847703209,
23,TDI,TDI_23_doa_150219.wav,,,2,rating_t_initial.csv,t,initial,,,,,0,1,1,1,0,0,0,1,0,25,25,22,,,,,,1,3.721,112,001,2019_Mar_15_1555,test_run,3.0.6,60.0130847703209,
13,TTI,TTI_13_tog_150219.wav,,,2,rating_t_initial.csv,t,initial,,,,,0,1,1,1,0,0,0,1,0,26,26,12,,,,,,7,0.903,112,001,2019_Mar_15_1555,test_run,3.0.6,60.0130847703209,
17,TTI,TTI_17_topp_150219.wav,,,2,rating_d_initial.csv,d,initial,,,,,0,1,1,1,0,1,1,0,0,0,0,16,,,,,,7,0.954,112,001,2019_Mar_15_1555,test_run,3.0.6,60.0130847703209,
20,TTI,TTI_20_tur_150219.wav,,,2,rating_d_initial.csv,d,initial,,,,,0,1,1,1,0,1,1,0,0,1,1,19,,,,,,1,4.171,112,001,2019_Mar_15_1555,test_run,3.0.6,60.0130847703209,
23,TTI,TTI_23_toa_150219.wav,,,2,rating_d_initial.csv,d,initial,,,,,0,1,1,1,0,1,1,0,0,2,2,22,,,,,,1,0.921,112,001,2019_Mar_15_1555,test_run,3.0.6,60.0130847703209,
1,TDI,TDI_1_dag_150219.wav,,,2,rating_d_initial.csv,d,initial,,,,,0,1,1,1,0,1,1,0,0,3,3,0,,,,,,7,0.803,112,001,2019_Mar_15_1555,test_run,3.0.6,60.0130847703209,
10,TDI,TDI_10_ditt_150219.wav,,,2,rating_d_initial.csv,d,initial,,,,,0,1,1,1,0,1,1,0,0,4,4,9,,,,,,7,0.92,112,001,2019_Mar_15_1555,test_run,3.0.6,60.0130847703209,
21,TTI,TTI_21_tugg_150219.wav,,,2,rating_d_initial.csv,d,initial,,,,,0,1,1,1,0,1,1,0,0,5,5,20,,,,,,2,7.104,112,001,2019_Mar_15_1555,test_run,3.0.6,60.0130847703209,
16,TTI,TTI_16_ton_150219.wav,,,2,rating_d_initial.csv,d,initial,,,,,0,1,1,1,0,1,1,0,0,6,6,15,,,,,,1,3.154,112,001,2019_Mar_15_1555,test_run,3.0.6,60.0130847703209,
6,TDI,TDI_6_deg_150219.wav,,,2,rating_d_initial.csv,d,initial,,,,,0,1,1,1,0,1,1,0,0,7,7,5,,,,,,7,0.854,112,001,2019_Mar_15_1555,test_run,3.0.6,60.0130847703209,
24,TTI,TTI_24_taack_150219.wav,,,2,rating_d_initial.csv,d,initial,,,,,0,1,1,1,0,1,1,0,0,8,8,23,,,,,,6,5.471,112,001,2019_Mar_15_1555,test_run,3.0.6,60.0130847703209,
14,TDI,TDI_14_dok_150219.wav,,,2,rating_d_initial.csv,d,initial,,,,,0,1,1,1,0,1,1,0,0,9,9,13,,,,,,7,0.805,112,001,2019_Mar_15_1555,test_run,3.0.6,60.0130847703209,
11,TDI,TDI_11_dipp_150219.wav,,,2,rating_d_initial.csv,d,initial,,,,,0,1,1,1,0,1,1,0,0,10,10,10,,,,,,7,1.82,112,001,2019_Mar_15_1555,test_run,3.0.6,60.0130847703209,
22,TTI,TTI_22_ty_150219.wav,,,2,rating_d_initial.csv,d,initial,,,,,0,1,1,1,0,1,1,0,0,11,11,21,,,,,,7,1.071,112,001,2019_Mar_15_1555,test_run,3.0.6,60.0130847703209,
15,TTI,TTI_15_tom_150219.wav,,,2,rating_d_initial.csv,d,initial,,,,,0,1,1,1,0,1,1,0,0,12,12,14,,,,,,1,0.67,112,001,2019_Mar_15_1555,test_run,3.0.6,60.0130847703209,
19,TTI,TTI_19_tun_150219.wav,,,2,rating_d_initial.csv,d,initial,,,,,0,1,1,1,0,1,1,0,0,13,13,18,,,,,,4,4.221,112,001,2019_Mar_15_1555,test_run,3.0.6,60.0130847703209,
27,TTI,TTI_27_toem_150219.wav,,,2,rating_d_initial.csv,d,initial,,,,,0,1,1,1,0,1,1,0,0,14,14,26,,,,,,2,1.036,112,001,2019_Mar_15_1555,test_run,3.0.6,60.0130847703209,
26,TTI,TTI_26_toe_150219.wav,,,2,rating_d_initial.csv,d,initial,,,,,0,1,1,1,0,1,1,0,0,15,15,25,,,,,,6,1.336,112,001,2019_Mar_15_1555,test_run,3.0.6,60.0130847703209,
3,TDI,TDI_3_dal_150219.wav,,,2,rating_d_initial.csv,d,initial,,,,,0,1,1,1,0,1,1,0,0,16,16,2,,,,,,7,0.621,112,001,2019_Mar_15_1555,test_run,3.0.6,60.0130847703209,
18,TTI,TTI_18_tum_150219.wav,,,2,rating_d_initial.csv,d,initial,,,,,0,1,1,1,0,1,1,0,0,17,17,17,,,,,,1,0.82,112,001,2019_Mar_15_1555,test_run,3.0.6,60.0130847703209,
13,TDI,TDI_13_dog_150219.wav,,,2,rating_d_initial.csv,d,initial,,,,,0,1,1,1,0,1,1,0,0,18,18,12,,,,,,7,0.704,112,001,2019_Mar_15_1555,test_run,3.0.6,60.0130847703209,
9,TDI,TDI_9_dill_150219.wav,,,2,rating_d_initial.csv,d,initial,,,,,0,1,1,1,0,1,1,0,0,19,19,8,,,,,,7,0.804,112,001,2019_Mar_15_1555,test_run,3.0.6,60.0130847703209,
8,TDI,TDI_8_dia_150219.wav,,,2,rating_d_initial.csv,d,initial,,,,,0,1,1,1,0,1,1,0,0,20,20,7,,,,,,7,1.654,112,001,2019_Mar_15_1555,test_run,3.0.6,60.0130847703209,
4,TDI,TDI_4_dam_150219.wav,,,2,rating_d_initial.csv,d,initial,,,,,0,1,1,1,0,1,1,0,0,21,21,3,,,,,,7,2.087,112,001,2019_Mar_15_1555,test_run,3.0.6,60.0130847703209,
5,TDI,TDI_5_dass_150219.wav,,,2,rating_d_initial.csv,d,initial,,,,,0,1,1,1,0,1,1,0,0,22,22,4,,,,,,7,1.038,112,001,2019_Mar_15_1555,test_run,3.0.6,60.0130847703209,
2,TDI,TDI_2_dagg_150219.wav,,,2,rating_d_initial.csv,d,initial,,,,,0,1,1,1,0,1,1,0,0,23,23,1,,,,,,7,0.903,112,001,2019_Mar_15_1555,test_run,3.0.6,60.0130847703209,
25,TTI,TTI_25_taar_150219.wav,,,2,rating_d_initial.csv,d,initial,,,,,0,1,1,1,0,1,1,0,0,24,24,24,,,,,,7,0.855,112,001,2019_Mar_15_1555,test_run,3.0.6,60.0130847703209,
7,TDI,TDI_7_den_150219.wav,,,2,rating_d_initial.csv,d,initial,,,,,0,1,1,1,0,1,1,0,0,25,25,6,,,,,,7,0.821,112,001,2019_Mar_15_1555,test_run,3.0.6,60.0130847703209,
12,TDI,TDI_12_doa_150219.wav,,,2,rating_d_initial.csv,d,initial,,,,,0,1,1,1,0,1,1,0,0,26,26,11,,,,,,6,1.57,112,001,2019_Mar_15_1555,test_run,3.0.6,60.0130847703209,
