item,item_cond,sound,corr_ans,group,block_id,listname,rating_for,position,trials.thisRepN,trials.thisTrialN,trials.thisN,trials.thisIndex,run_block_type.thisRepN,run_block_type.thisTrialN,run_block_type.thisN,run_block_type.thisIndex,routine.thisRepN,routine.thisTrialN,routine.thisN,routine.thisIndex,rating_trials.thisRepN,rating_trials.thisTrialN,rating_trials.thisN,rating_trials.thisIndex,key_resp_1.keys,key_resp_1.rt,key_resp_2.keys,key_resp_2.corr,key_resp_2.rt,rating_1.response,rating_1.rt,participant,session,date,expName,psychopyVersion,frameRate,
,,,,,,,,,,,,,,,,,,,,,,,,,return,12.883718261989998,,,,,,113,001,2019_Mar_18_1012,test_run,3.0.6,60.002576145352926,
25,ETW,ETW_25_mikrosekund_070319.wav,j,t,,,,,0,0,0,24,,,,,,,,,,,,,,,j,1,4.70359791899682,,,113,001,2019_Mar_18_1012,test_run,3.0.6,60.002576145352926,
124,ENW,ENW_34_jomera_150219.wav,n,t,,,,,0,1,1,123,,,,,,,,,,,,,,,n,1,3.8368212670029607,,,113,001,2019_Mar_18_1012,test_run,3.0.6,60.002576145352926,
77,EFW,EFW_47_invoanare_070319.wav,j,t,,,,,0,2,2,76,,,,,,,,,,,,,,,j,1,8.533575337001821,,,113,001,2019_Mar_18_1012,test_run,3.0.6,60.002576145352926,
136,ENW,ENW_46_pommera_150219.wav,n,t,,,,,0,3,3,135,,,,,,,,,,,,,,,n,1,2.719549272005679,,,113,001,2019_Mar_18_1012,test_run,3.0.6,60.002576145352926,
97,ENW,ENW_7_flasera_150219.wav,n,t,,,,,0,4,4,96,,,,,,,,,,,,,,,j,0,0.9687622640049085,,,113,001,2019_Mar_18_1012,test_run,3.0.6,60.002576145352926,
82,EFW,EFW_52_framhoalla_070319.wav,j,t,,,,,0,5,5,81,,,,,,,,,,,,,,,j,1,0.11949661202379502,,,113,001,2019_Mar_18_1012,test_run,3.0.6,60.002576145352926,
131,ENW,ENW_41_vessmaren_150219.wav,n,t,,,,,0,6,6,130,,,,,,,,,,,,,,,n,1,0.8189589559915476,,,113,001,2019_Mar_18_1012,test_run,3.0.6,60.002576145352926,
76,EFW,EFW_46_foerhoer_070319.wav,j,t,,,,,0,7,7,75,,,,,,,,,,,,,,,j,1,0.183806207991438,,,113,001,2019_Mar_18_1012,test_run,3.0.6,60.002576145352926,
117,ENW,ENW_27_lyssvinner_150219.wav,n,t,,,,,0,8,8,116,,,,,,,,,,,,,,,n,1,1.9523994260234758,,,113,001,2019_Mar_18_1012,test_run,3.0.6,60.002576145352926,
112,ENW,ENW_22_fjäserna_150219.wav,n,t,,,,,0,9,9,111,,,,,,,,,,,,,,,n,1,0.7526923439872917,,,113,001,2019_Mar_18_1012,test_run,3.0.6,60.002576145352926,
133,ENW,ENW_43_axalän_150219.wav,n,t,,,,,0,10,10,132,,,,,,,,,,,,,,,n,1,1.552636161010014,,,113,001,2019_Mar_18_1012,test_run,3.0.6,60.002576145352926,
139,ENW,ENW_49_hälskrena_150219.wav,n,t,,,,,0,11,11,138,,,,,,,,,,,,,,,n,1,2.6187883380043786,,,113,001,2019_Mar_18_1012,test_run,3.0.6,60.002576145352926,
15,ETW,ETW_15_knivsudd_070319.wav,j,t,,,,,0,12,12,14,,,,,,,,,,,,,,,j,1,9.602165777003393,,,113,001,2019_Mar_18_1012,test_run,3.0.6,60.002576145352926,
135,ENW,ENW_45_fammoarens_150219.wav,n,t,,,,,0,13,13,134,,,,,,,,,,,,,,,n,1,1.4837782109971158,,,113,001,2019_Mar_18_1012,test_run,3.0.6,60.002576145352926,
171,ENW,ENW_81_persifera_150219.wav,n,t,,,,,0,14,14,170,,,,,,,,,,,,,,,n,1,2.9195082999940496,,,113,001,2019_Mar_18_1012,test_run,3.0.6,60.002576145352926,
8,ETW,ETW_8_samfund_070319.wav,j,t,,,,,0,15,15,7,,,,,,,,,,,,,,,j,1,3.002994634996867,,,113,001,2019_Mar_18_1012,test_run,3.0.6,60.002576145352926,
105,ENW,ENW_15_forfeckla_150219.wav,n,t,,,,,0,16,16,104,,,,,,,,,,,,,,,n,1,0.7504848089884035,,,113,001,2019_Mar_18_1012,test_run,3.0.6,60.002576145352926,
32,EFW,EFW_2_snarare_070319.wav,j,t,,,,,0,17,17,31,,,,,,,,,,,,,,,j,1,0.21951886199531145,,,113,001,2019_Mar_18_1012,test_run,3.0.6,60.002576145352926,
20,ETW,ETW_20_loppmarknad_070319.wav,j,t,,,,,0,18,18,19,,,,,,,,,,,,,,,j,1,1.235450595995644,,,113,001,2019_Mar_18_1012,test_run,3.0.6,60.002576145352926,
80,EFW,EFW_50_snaalla_070319.wav,j,t,,,,,0,19,19,79,,,,,,,,,,,,,,,j,1,0.8529233419976663,,,113,001,2019_Mar_18_1012,test_run,3.0.6,60.002576145352926,
109,ENW,ENW_19_morloren_150219.wav,n,t,,,,,0,20,20,108,,,,,,,,,,,,,,,n,1,0.2530718140187673,,,113,001,2019_Mar_18_1012,test_run,3.0.6,60.002576145352926,
114,ENW,ENW_24_samjoner_150219.wav,n,t,,,,,0,21,21,113,,,,,,,,,,,,,,,n,1,1.0837264260044321,,,113,001,2019_Mar_18_1012,test_run,3.0.6,60.002576145352926,
91,ENW,ENW_1_norsimerar_150219.wav,n,t,,,,,0,22,22,90,,,,,,,,,,,,,,,n,1,0.23530805300106294,,,113,001,2019_Mar_18_1012,test_run,3.0.6,60.002576145352926,
50,EFW,EFW_20_fenomen_070319.wav,j,t,,,,,0,23,23,49,,,,,,,,,,,,,,,j,1,0.46931051200954244,,,113,001,2019_Mar_18_1012,test_run,3.0.6,60.002576145352926,
167,ENW,ENW_77_somfera_150219.wav,n,t,,,,,0,24,24,166,,,,,,,,,,,,,,,n,1,0.5355092239915393,,,113,001,2019_Mar_18_1012,test_run,3.0.6,60.002576145352926,
75,EFW,EFW_45_innanfoer_070319.wav,j,t,,,,,0,25,25,74,,,,,,,,,,,,,,,j,1,0.40280039299977943,,,113,001,2019_Mar_18_1012,test_run,3.0.6,60.002576145352926,
42,EFW,EFW_12_foeremoal_070319.wav,j,t,,,,,0,26,26,41,,,,,,,,,,,,,,,j,1,0.6193317720026243,,,113,001,2019_Mar_18_1012,test_run,3.0.6,60.002576145352926,
142,ENW,ENW_52_filofyll_150219.wav,n,t,,,,,0,27,27,141,,,,,,,,,,,,,,,n,1,0.5525981440150645,,,113,001,2019_Mar_18_1012,test_run,3.0.6,60.002576145352926,
43,EFW,EFW_13_elever_070319.wav,j,t,,,,,0,28,28,42,,,,,,,,,,,,,,,j,1,0.5360564869770315,,,113,001,2019_Mar_18_1012,test_run,3.0.6,60.002576145352926,
106,ENW,ENW_16_rolinkar_150219.wav,n,t,,,,,0,29,29,105,,,,,,,,,,,,,,,n,1,0.7193412490014452,,,113,001,2019_Mar_18_1012,test_run,3.0.6,60.002576145352926,
145,ENW,ENW_55_invaskin_150219.wav,n,t,,,,,0,30,30,144,,,,,,,,,,,,,,,n,1,1.0692303050018381,,,113,001,2019_Mar_18_1012,test_run,3.0.6,60.002576145352926,
40,EFW,EFW_10_laarare_070319.wav,j,t,,,,,0,31,31,39,,,,,,,,,,,,,,,j,1,0.65295093099121,,,113,001,2019_Mar_18_1012,test_run,3.0.6,60.002576145352926,
99,ENW,ENW_9_samlemor_150219.wav,n,t,,,,,0,32,32,98,,,,,,,,,,,,,,,n,1,0.5524864500039257,,,113,001,2019_Mar_18_1012,test_run,3.0.6,60.002576145352926,
150,ENW,ENW_60_lackpenar_150219.wav,n,t,,,,,0,33,33,149,,,,,,,,,,,,,,,n,1,0.9688532730215229,,,113,001,2019_Mar_18_1012,test_run,3.0.6,60.002576145352926,
116,ENW,ENW_26_anufera_150219.wav,n,t,,,,,0,34,34,115,,,,,,,,,,,,,,,n,1,0.502336651989026,,,113,001,2019_Mar_18_1012,test_run,3.0.6,60.002576145352926,
111,ENW,ENW_21_tjulning_150219.wav,n,t,,,,,0,35,35,110,,,,,,,,,,,,,,,n,1,0.6189003409817815,,,113,001,2019_Mar_18_1012,test_run,3.0.6,60.002576145352926,
172,ENW,ENW_82_värskappa_150219.wav,n,t,,,,,0,36,36,171,,,,,,,,,,,,,,,n,1,1.2004716010123957,,,113,001,2019_Mar_18_1012,test_run,3.0.6,60.002576145352926,
128,ENW,ENW_38_roakanier_150219.wav,n,t,,,,,0,37,37,127,,,,,,,,,,,,,,,n,1,0.519292326993309,,,113,001,2019_Mar_18_1012,test_run,3.0.6,60.002576145352926,
177,ENW,ENW_87_kloavare_150219.wav,n,t,,,,,0,38,38,176,,,,,,,,,,,,,,,n,1,0.9023969519766979,,,113,001,2019_Mar_18_1012,test_run,3.0.6,60.002576145352926,
51,EFW,EFW_21_varierar_070319.wav,j,t,,,,,0,39,39,50,,,,,,,,,,,,,,,j,1,0.4854234819940757,,,113,001,2019_Mar_18_1012,test_run,3.0.6,60.002576145352926,
168,ENW,ENW_78_morvinder_150219.wav,n,t,,,,,0,40,40,167,,,,,,,,,,,,,,,n,1,0.6859670790145174,,,113,001,2019_Mar_18_1012,test_run,3.0.6,60.002576145352926,
149,ENW,ENW_59_kyrkmänning_150219.wav,n,t,,,,,0,41,41,148,,,,,,,,,,,,,,,n,1,0.8198433819925413,,,113,001,2019_Mar_18_1012,test_run,3.0.6,60.002576145352926,
6,ETW,ETW_6_vemod_070319.wav,j,t,,,,,0,42,42,5,,,,,,,,,,,,,,,j,1,1.019452051987173,,,113,001,2019_Mar_18_1012,test_run,3.0.6,60.002576145352926,
165,ENW,ENW_75_foarskining_150219.wav,n,t,,,,,0,43,43,164,,,,,,,,,,,,,,,n,1,0.5358858870167751,,,113,001,2019_Mar_18_1012,test_run,3.0.6,60.002576145352926,
158,ENW,ENW_68_presionar_150219.wav,n,t,,,,,0,44,44,157,,,,,,,,,,,,,,,n,1,0.6358134820184205,,,113,001,2019_Mar_18_1012,test_run,3.0.6,60.002576145352926,
62,EFW,EFW_32_fyller_070319.wav,j,t,,,,,0,45,45,61,,,,,,,,,,,,,,,j,1,0.3691877550154459,,,113,001,2019_Mar_18_1012,test_run,3.0.6,60.002576145352926,
81,EFW,EFW_51_seminarier_070319.wav,j,t,,,,,0,46,46,80,,,,,,,,,,,,,,,j,1,0.40252990199951455,,,113,001,2019_Mar_18_1012,test_run,3.0.6,60.002576145352926,
63,EFW,EFW_33_elva_070319.wav,j,t,,,,,0,47,47,62,,,,,,,,,,,,,,,j,1,0.7187957349815406,,,113,001,2019_Mar_18_1012,test_run,3.0.6,60.002576145352926,
5,ETW,ETW_5_skepnad_070319.wav,j,t,,,,,0,48,48,4,,,,,,,,,,,,,,,j,1,0.43633918298291974,,,113,001,2019_Mar_18_1012,test_run,3.0.6,60.002576145352926,
161,ENW,ENW_71_forskäckla_150219.wav,n,t,,,,,0,49,49,160,,,,,,,,,,,,,,,n,1,0.5188674459932372,,,113,001,2019_Mar_18_1012,test_run,3.0.6,60.002576145352926,
160,ENW,ENW_70_roklarner_150219.wav,n,t,,,,,0,50,50,159,,,,,,,,,,,,,,,n,1,0.5189887449960224,,,113,001,2019_Mar_18_1012,test_run,3.0.6,60.002576145352926,
66,EFW,EFW_36_haarifroan_070319.wav,j,t,,,,,0,51,51,65,,,,,,,,,,,,,,,j,1,0.5527587550168391,,,113,001,2019_Mar_18_1012,test_run,3.0.6,60.002576145352926,
22,ETW,ETW_22_sinnesfrid_070319.wav,j,t,,,,,0,52,52,21,,,,,,,,,,,,,,,j,1,0.3365669939958025,,,113,001,2019_Mar_18_1012,test_run,3.0.6,60.002576145352926,
170,ENW,ENW_80_tjarfera_150219.wav,n,t,,,,,0,53,53,169,,,,,,,,,,,,,,,n,1,0.38591165500110947,,,113,001,2019_Mar_18_1012,test_run,3.0.6,60.002576145352926,
48,EFW,EFW_18_nummer_070319.wav,j,t,,,,,0,54,54,47,,,,,,,,,,,,,,,j,1,0.45053269699565135,,,113,001,2019_Mar_18_1012,test_run,3.0.6,60.002576145352926,
159,ENW,ENW_69_mjohusa_150219.wav,n,t,,,,,0,55,55,158,,,,,,,,,,,,,,,n,1,0.6858406749961432,,,113,001,2019_Mar_18_1012,test_run,3.0.6,60.002576145352926,
38,EFW,EFW_8_samman_070319.wav,j,t,,,,,0,56,56,37,,,,,,,,,,,,,,,j,1,1.1187256690172944,,,113,001,2019_Mar_18_1012,test_run,3.0.6,60.002576145352926,
130,ENW,ENW_40_knipackar_150219.wav,n,t,,,,,0,57,57,129,,,,,,,,,,,,,,,n,1,0.5860135300026741,,,113,001,2019_Mar_18_1012,test_run,3.0.6,60.002576145352926,
144,ENW,ENW_54_lomering_150219.wav,n,t,,,,,0,58,58,143,,,,,,,,,,,,,,,n,1,0.5195790819998365,,,113,001,2019_Mar_18_1012,test_run,3.0.6,60.002576145352926,
69,EFW,EFW_39_foersvara_070319.wav,j,t,,,,,0,59,59,68,,,,,,,,,,,,,,,j,1,0.669170044013299,,,113,001,2019_Mar_18_1012,test_run,3.0.6,60.002576145352926,
86,EFW,EFW_56_mormor_070319.wav,j,t,,,,,0,60,60,85,,,,,,,,,,,,,,,j,1,0.5525381519983057,,,113,001,2019_Mar_18_1012,test_run,3.0.6,60.002576145352926,
27,ETW,ETW_27_medellivslaangd_070319.wav,j,t,,,,,0,61,61,26,,,,,,,,,,,,,,,j,1,0.4522085080097895,,,113,001,2019_Mar_18_1012,test_run,3.0.6,60.002576145352926,
132,ENW,ENW_42_hamsforing_150219.wav,n,t,,,,,0,62,62,131,,,,,,,,,,,,,,,n,1,0.43573325499892235,,,113,001,2019_Mar_18_1012,test_run,3.0.6,60.002576145352926,
148,ENW,ENW_58_malvossa_150219.wav,n,t,,,,,0,63,63,147,,,,,,,,,,,,,,,n,1,0.4527335180027876,,,113,001,2019_Mar_18_1012,test_run,3.0.6,60.002576145352926,
64,EFW,EFW_34_sommar_070319.wav,j,t,,,,,0,64,64,63,,,,,,,,,,,,,,,j,1,0.3855012629937846,,,113,001,2019_Mar_18_1012,test_run,3.0.6,60.002576145352926,
126,ENW,ENW_36_skymlosa_150219.wav,n,t,,,,,0,65,65,125,,,,,,,,,,,,,,,n,1,0.3858879519975744,,,113,001,2019_Mar_18_1012,test_run,3.0.6,60.002576145352926,
10,ETW,ETW_10_nomad_070319.wav,j,t,,,,,0,66,66,9,,,,,,,,,,,,,,,j,1,0.4688453290145844,,,113,001,2019_Mar_18_1012,test_run,3.0.6,60.002576145352926,
163,ENW,ENW_73_vimmankalla_150219.wav,n,t,,,,,0,67,67,162,,,,,,,,,,,,,,,n,1,0.7025287009892054,,,113,001,2019_Mar_18_1012,test_run,3.0.6,60.002576145352926,
61,EFW,EFW_31_jaamfoera_070319.wav,j,t,,,,,0,68,68,60,,,,,,,,,,,,,,,j,1,0.40231041301740333,,,113,001,2019_Mar_18_1012,test_run,3.0.6,60.002576145352926,
176,ENW,ENW_86_heloppsin_150219.wav,n,t,,,,,0,69,69,175,,,,,,,,,,,,,,,n,1,0.8855595029890537,,,113,001,2019_Mar_18_1012,test_run,3.0.6,60.002576145352926,
138,ENW,ENW_48_skyjamsen_150219.wav,n,t,,,,,0,70,70,137,,,,,,,,,,,,,,,n,1,0.7023732250090688,,,113,001,2019_Mar_18_1012,test_run,3.0.6,60.002576145352926,
67,EFW,EFW_37_foervisso_070319.wav,j,t,,,,,0,71,71,66,,,,,,,,,,,,,,,j,1,0.4192477389879059,,,113,001,2019_Mar_18_1012,test_run,3.0.6,60.002576145352926,
33,EFW,EFW_3_familjen_070319.wav,j,t,,,,,0,72,72,32,,,,,,,,,,,,,,,j,1,0.35316089700791053,,,113,001,2019_Mar_18_1012,test_run,3.0.6,60.002576145352926,
147,ENW,ENW_57_flovanning_150219.wav,n,t,,,,,0,73,73,146,,,,,,,,,,,,,,,n,1,0.31958338600816205,,,113,001,2019_Mar_18_1012,test_run,3.0.6,60.002576145352926,
107,ENW,ENW_17_kopynnor_150219.wav,n,t,,,,,0,74,74,106,,,,,,,,,,,,,,,n,1,0.46904261197778396,,,113,001,2019_Mar_18_1012,test_run,3.0.6,60.002576145352926,
73,EFW,EFW_43_halvoar_070319.wav,j,t,,,,,0,75,75,72,,,,,,,,,,,,,,,j,1,0.41887447400949895,,,113,001,2019_Mar_18_1012,test_run,3.0.6,60.002576145352926,
85,EFW,EFW_55_oroar_070319.wav,j,t,,,,,0,76,76,84,,,,,,,,,,,,,,,j,1,0.5197674389928579,,,113,001,2019_Mar_18_1012,test_run,3.0.6,60.002576145352926,
129,ENW,ENW_39_ljusonar_150219.wav,n,t,,,,,0,77,77,128,,,,,,,,,,,,,,,n,1,0.550480953999795,,,113,001,2019_Mar_18_1012,test_run,3.0.6,60.002576145352926,
180,ENW,ENW_90_skrivinar_150219.wav,n,t,,,,,0,78,78,179,,,,,,,,,,,,,,,n,1,0.46917166098137386,,,113,001,2019_Mar_18_1012,test_run,3.0.6,60.002576145352926,
18,ETW,ETW_18_husfasad_070319.wav,j,t,,,,,0,79,79,17,,,,,,,,,,,,,,,j,1,0.38593616598518565,,,113,001,2019_Mar_18_1012,test_run,3.0.6,60.002576145352926,
164,ENW,ENW_74_malsera_150219.wav,n,t,,,,,0,80,80,163,,,,,,,,,,,,,,,n,1,0.5025092700088862,,,113,001,2019_Mar_18_1012,test_run,3.0.6,60.002576145352926,
1,ETW,ETW_1_oskuld_070319.wav,j,t,,,,,0,81,81,0,,,,,,,,,,,,,,,j,1,0.3364541810005903,,,113,001,2019_Mar_18_1012,test_run,3.0.6,60.002576145352926,
3,ETW,ETW_3_choklad_070319.wav,j,t,,,,,0,82,82,2,,,,,,,,,,,,,,,j,1,0.3839490480022505,,,113,001,2019_Mar_18_1012,test_run,3.0.6,60.002576145352926,
19,ETW,ETW_19_saallskapshund_070319.wav,j,t,,,,,0,83,83,18,,,,,,,,,,,,,,,j,1,0.6696245860075578,,,113,001,2019_Mar_18_1012,test_run,3.0.6,60.002576145352926,
31,EFW,EFW_1_allmaan_070319.wav,j,t,,,,,0,84,84,30,,,,,,,,,,,,,,,j,1,0.48568167397752404,,,113,001,2019_Mar_18_1012,test_run,3.0.6,60.002576145352926,
87,EFW,EFW_57_loenerna_070319.wav,j,t,,,,,0,85,85,86,,,,,,,,,,,,,,,j,1,0.4357626650016755,,,113,001,2019_Mar_18_1012,test_run,3.0.6,60.002576145352926,
102,ENW,ENW_12_snälmola_150219.wav,n,t,,,,,0,86,86,101,,,,,,,,,,,,,,,n,1,0.46903792800731026,,,113,001,2019_Mar_18_1012,test_run,3.0.6,60.002576145352926,
175,ENW,ENW_85_forlinna_150219.wav,n,t,,,,,0,87,87,174,,,,,,,,,,,,,,,n,1,0.6194174389820546,,,113,001,2019_Mar_18_1012,test_run,3.0.6,60.002576145352926,
34,EFW,EFW_4_foerminska_070319.wav,j,t,,,,,0,88,88,33,,,,,,,,,,,,,,,j,1,0.9022323789831717,,,113,001,2019_Mar_18_1012,test_run,3.0.6,60.002576145352926,
108,ENW,ENW_18_moalursena_150219.wav,n,t,,,,,0,89,89,107,,,,,,,,,,,,,,,n,1,0.6187721540045459,,,113,001,2019_Mar_18_1012,test_run,3.0.6,60.002576145352926,
14,ETW,ETW_14_myriad_070319.wav,j,t,,,,,0,90,90,13,,,,,,,,,,,,,,,n,0,0.3338431839947589,,,113,001,2019_Mar_18_1012,test_run,3.0.6,60.002576145352926,
88,EFW,EFW_58_examen_070319.wav,j,t,,,,,0,91,91,87,,,,,,,,,,,,,,,j,1,0.41893087700009346,,,113,001,2019_Mar_18_1012,test_run,3.0.6,60.002576145352926,
26,ETW,ETW_26_olympiad_070319.wav,j,t,,,,,0,92,92,25,,,,,,,,,,,,,,,j,1,0.7862435129936785,,,113,001,2019_Mar_18_1012,test_run,3.0.6,60.002576145352926,
57,EFW,EFW_27_analysera_070319.wav,j,t,,,,,0,93,93,56,,,,,,,,,,,,,,,j,1,0.33584968600189313,,,113,001,2019_Mar_18_1012,test_run,3.0.6,60.002576145352926,
123,ENW,ENW_33_froamation_150219.wav,n,t,,,,,0,94,94,122,,,,,,,,,,,,,,,j,0,0.45303371499176137,,,113,001,2019_Mar_18_1012,test_run,3.0.6,60.002576145352926,
156,ENW,ENW_66_voarsmenar_150219.wav,n,t,,,,,0,95,95,155,,,,,,,,,,,,,,,n,1,0.40269899397389963,,,113,001,2019_Mar_18_1012,test_run,3.0.6,60.002576145352926,
179,ENW,ENW_89_mikenspoan_150219.wav,n,t,,,,,0,96,96,178,,,,,,,,,,,,,,,n,1,0.6026191069977358,,,113,001,2019_Mar_18_1012,test_run,3.0.6,60.002576145352926,
115,ENW,ENW_25_affierar_150219.wav,n,t,,,,,0,97,97,114,,,,,,,,,,,,,,,n,1,0.5353740279970225,,,113,001,2019_Mar_18_1012,test_run,3.0.6,60.002576145352926,
94,ENW,ENW_4_kyllfaren_150219.wav,n,t,,,,,0,98,98,93,,,,,,,,,,,,,,,n,1,0.8356549480231479,,,113,001,2019_Mar_18_1012,test_run,3.0.6,60.002576145352926,
101,ENW,ENW_11_fränna_150219.wav,n,t,,,,,0,99,99,100,,,,,,,,,,,,,,,n,1,0.41933018699637614,,,113,001,2019_Mar_18_1012,test_run,3.0.6,60.002576145352926,
96,ENW,ENW_6_vilfroaser_150219.wav,n,t,,,,,0,100,100,95,,,,,,,,,,,,,,,n,1,0.4692438860074617,,,113,001,2019_Mar_18_1012,test_run,3.0.6,60.002576145352926,
127,ENW,ENW_37_spallrivet_150219.wav,n,t,,,,,0,101,101,126,,,,,,,,,,,,,,,n,1,0.5359469919931144,,,113,001,2019_Mar_18_1012,test_run,3.0.6,60.002576145352926,
12,ETW,ETW_12_offerlund_070319.wav,j,t,,,,,0,102,102,11,,,,,,,,,,,,,,,n,0,0.48585209500743076,,,113,001,2019_Mar_18_1012,test_run,3.0.6,60.002576145352926,
84,EFW,EFW_54_romaner_070319.wav,j,t,,,,,0,103,103,83,,,,,,,,,,,,,,,j,1,1.0671369880146813,,,113,001,2019_Mar_18_1012,test_run,3.0.6,60.002576145352926,
146,ENW,ENW_56_lysskarna_150219.wav,n,t,,,,,0,104,104,145,,,,,,,,,,,,,,,n,1,0.5692252810113132,,,113,001,2019_Mar_18_1012,test_run,3.0.6,60.002576145352926,
17,ETW,ETW_17_hemmavid_070319.wav,j,t,,,,,0,105,105,16,,,,,,,,,,,,,,,j,1,0.4520622069831006,,,113,001,2019_Mar_18_1012,test_run,3.0.6,60.002576145352926,
118,ENW,ENW_28_läkermask_150219.wav,n,t,,,,,0,106,106,117,,,,,,,,,,,,,,,n,1,2.0532863260013983,,,113,001,2019_Mar_18_1012,test_run,3.0.6,60.002576145352926,
104,ENW,ENW_14_kärmenor_150219.wav,n,t,,,,,0,107,107,103,,,,,,,,,,,,,,,n,1,0.7693442289892118,,,113,001,2019_Mar_18_1012,test_run,3.0.6,60.002576145352926,
58,EFW,EFW_28_olja_070319.wav,j,t,,,,,0,108,108,57,,,,,,,,,,,,,,,j,1,1.019164694007486,,,113,001,2019_Mar_18_1012,test_run,3.0.6,60.002576145352926,
30,ETW,ETW_30_oeverlevnad_070319.wav,j,t,,,,,0,109,109,29,,,,,,,,,,,,,,,j,1,0.4362707219843287,,,113,001,2019_Mar_18_1012,test_run,3.0.6,60.002576145352926,
162,ENW,ENW_72_urskecken_150219.wav,n,t,,,,,0,110,110,161,,,,,,,,,,,,,,,n,1,0.33604560198727995,,,113,001,2019_Mar_18_1012,test_run,3.0.6,60.002576145352926,
169,ENW,ENW_79_lyxmare_150219.wav,n,t,,,,,0,111,111,168,,,,,,,,,,,,,,,n,1,0.7192079969972838,,,113,001,2019_Mar_18_1012,test_run,3.0.6,60.002576145352926,
60,EFW,EFW_30_officiella_070319.wav,j,t,,,,,0,112,112,59,,,,,,,,,,,,,,,j,1,0.4192747469933238,,,113,001,2019_Mar_18_1012,test_run,3.0.6,60.002576145352926,
90,EFW,EFW_60_insulin_070319.wav,j,t,,,,,0,113,113,89,,,,,,,,,,,,,,,j,1,0.4189277979894541,,,113,001,2019_Mar_18_1012,test_run,3.0.6,60.002576145352926,
89,EFW,EFW_59_filosofin_070319.wav,j,t,,,,,0,114,114,88,,,,,,,,,,,,,,,j,1,0.4192891690181568,,,113,001,2019_Mar_18_1012,test_run,3.0.6,60.002576145352926,
121,ENW,ENW_31_romation_150219.wav,n,t,,,,,0,115,115,120,,,,,,,,,,,,,,,n,1,0.8857536150026135,,,113,001,2019_Mar_18_1012,test_run,3.0.6,60.002576145352926,
119,ENW,ENW_29_uppskira_150219.wav,n,t,,,,,0,116,116,118,,,,,,,,,,,,,,,n,1,0.7857788340188563,,,113,001,2019_Mar_18_1012,test_run,3.0.6,60.002576145352926,
29,ETW,ETW_29_oeverhuvud_070319.wav,j,t,,,,,0,117,117,28,,,,,,,,,,,,,,,j,1,0.3862389429996256,,,113,001,2019_Mar_18_1012,test_run,3.0.6,60.002576145352926,
174,ENW,ENW_84_hurmarna_150219.wav,n,t,,,,,0,118,118,173,,,,,,,,,,,,,,,n,1,0.5354031029855832,,,113,001,2019_Mar_18_1012,test_run,3.0.6,60.002576145352926,
92,ENW,ENW_2_overralka_150219.wav,n,t,,,,,0,119,119,91,,,,,,,,,,,,,,,n,1,0.5354461800015997,,,113,001,2019_Mar_18_1012,test_run,3.0.6,60.002576145352926,
100,ENW,ENW_10_skinnamer_150219.wav,n,t,,,,,0,120,120,99,,,,,,,,,,,,,,,n,1,0.3693677589762956,,,113,001,2019_Mar_18_1012,test_run,3.0.6,60.002576145352926,
154,ENW,ENW_64_havskvare_150219.wav,n,t,,,,,0,121,121,153,,,,,,,,,,,,,,,n,1,0.6524929880106356,,,113,001,2019_Mar_18_1012,test_run,3.0.6,60.002576145352926,
4,ETW,ETW_4_livraadd_070319.wav,j,t,,,,,0,122,122,3,,,,,,,,,,,,,,,j,1,0.48576270701596513,,,113,001,2019_Mar_18_1012,test_run,3.0.6,60.002576145352926,
36,EFW,EFW_6_massa_070319.wav,j,t,,,,,0,123,123,35,,,,,,,,,,,,,,,j,1,0.3857693830213975,,,113,001,2019_Mar_18_1012,test_run,3.0.6,60.002576145352926,
44,EFW,EFW_14_foersoeken_070319.wav,j,t,,,,,0,124,124,43,,,,,,,,,,,,,,,j,1,0.5522251969960053,,,113,001,2019_Mar_18_1012,test_run,3.0.6,60.002576145352926,
98,ENW,ENW_8_haväras_150219.wav,n,t,,,,,0,125,125,97,,,,,,,,,,,,,,,n,1,0.8524944599776063,,,113,001,2019_Mar_18_1012,test_run,3.0.6,60.002576145352926,
166,ENW,ENW_76_omfläskor_150219.wav,n,t,,,,,0,126,126,165,,,,,,,,,,,,,,,n,1,0.48596325601101853,,,113,001,2019_Mar_18_1012,test_run,3.0.6,60.002576145352926,
16,ETW,ETW_16_episod_070319.wav,j,t,,,,,0,127,127,15,,,,,,,,,,,,,,,j,1,0.3862614019890316,,,113,001,2019_Mar_18_1012,test_run,3.0.6,60.002576145352926,
41,EFW,EFW_11_maanniskor_070319.wav,j,t,,,,,0,128,128,40,,,,,,,,,,,,,,,j,1,0.5530495679995511,,,113,001,2019_Mar_18_1012,test_run,3.0.6,60.002576145352926,
125,ENW,ENW_35_nymaljen_150219.wav,n,t,,,,,0,129,129,124,,,,,,,,,,,,,,,n,1,0.7359101150068454,,,113,001,2019_Mar_18_1012,test_run,3.0.6,60.002576145352926,
78,EFW,EFW_48_varifroan_070319.wav,j,t,,,,,0,130,130,77,,,,,,,,,,,,,,,j,1,0.3863246969995089,,,113,001,2019_Mar_18_1012,test_run,3.0.6,60.002576145352926,
122,ENW,ENW_32_fonering_150219.wav,n,t,,,,,0,131,131,121,,,,,,,,,,,,,,,n,1,0.40264790898072533,,,113,001,2019_Mar_18_1012,test_run,3.0.6,60.002576145352926,
152,ENW,ENW_62_ljullepilja_150219.wav,n,t,,,,,0,132,132,151,,,,,,,,,,,,,,,n,1,0.5360000740038231,,,113,001,2019_Mar_18_1012,test_run,3.0.6,60.002576145352926,
46,EFW,EFW_16_lyssna_070319.wav,j,t,,,,,0,133,133,45,,,,,,,,,,,,,,,j,1,0.5338206610176712,,,113,001,2019_Mar_18_1012,test_run,3.0.6,60.002576145352926,
103,ENW,ENW_13_forvaron_150219.wav,n,t,,,,,0,134,134,102,,,,,,,,,,,,,,,n,1,0.5187212180171628,,,113,001,2019_Mar_18_1012,test_run,3.0.6,60.002576145352926,
113,ENW,ENW_23_allsänning_150219.wav,n,t,,,,,0,135,135,112,,,,,,,,,,,,,,,n,1,0.38623918997473083,,,113,001,2019_Mar_18_1012,test_run,3.0.6,60.002576145352926,
173,ENW,ENW_83_fyrskovar_150219.wav,n,t,,,,,0,136,136,172,,,,,,,,,,,,,,,n,1,0.5863233690033667,,,113,001,2019_Mar_18_1012,test_run,3.0.6,60.002576145352926,
13,ETW,ETW_13_oevervoald_070319.wav,j,t,,,,,0,137,137,12,,,,,,,,,,,,,,,j,1,0.3857398990076035,,,113,001,2019_Mar_18_1012,test_run,3.0.6,60.002576145352926,
28,ETW,ETW_28_kommunalroad_070319.wav,j,t,,,,,0,138,138,27,,,,,,,,,,,,,,,j,1,0.4193578530102968,,,113,001,2019_Mar_18_1012,test_run,3.0.6,60.002576145352926,
7,ETW,ETW_7_hemland_070319.wav,j,t,,,,,0,139,139,6,,,,,,,,,,,,,,,j,1,0.41945178800961,,,113,001,2019_Mar_18_1012,test_run,3.0.6,60.002576145352926,
79,EFW,EFW_49_vaasen_070319.wav,j,t,,,,,0,140,140,78,,,,,,,,,,,,,,,j,1,0.452817703015171,,,113,001,2019_Mar_18_1012,test_run,3.0.6,60.002576145352926,
151,ENW,ENW_61_myckskina_150219.wav,n,t,,,,,0,141,141,150,,,,,,,,,,,,,,,n,1,0.5672473419981543,,,113,001,2019_Mar_18_1012,test_run,3.0.6,60.002576145352926,
74,EFW,EFW_44_ljusa_070319.wav,j,t,,,,,0,142,142,73,,,,,,,,,,,,,,,j,1,0.7858488839992788,,,113,001,2019_Mar_18_1012,test_run,3.0.6,60.002576145352926,
141,ENW,ENW_51_skillare_150219.wav,n,t,,,,,0,143,143,140,,,,,,,,,,,,,,,n,1,0.4688660000101663,,,113,001,2019_Mar_18_1012,test_run,3.0.6,60.002576145352926,
70,EFW,EFW_40_miljoner_070319.wav,j,t,,,,,0,144,144,69,,,,,,,,,,,,,,,j,1,0.41966955101815984,,,113,001,2019_Mar_18_1012,test_run,3.0.6,60.002576145352926,
35,EFW,EFW_5_samhaalle_070319.wav,j,t,,,,,0,145,145,34,,,,,,,,,,,,,,,j,1,0.4025726679828949,,,113,001,2019_Mar_18_1012,test_run,3.0.6,60.002576145352926,
53,EFW,EFW_23_aamne_070319.wav,j,t,,,,,0,146,146,52,,,,,,,,,,,,,,,j,1,0.8524107739794999,,,113,001,2019_Mar_18_1012,test_run,3.0.6,60.002576145352926,
56,EFW,EFW_26_armarna_070319.wav,j,t,,,,,0,147,147,55,,,,,,,,,,,,,,,j,1,0.48628658198867925,,,113,001,2019_Mar_18_1012,test_run,3.0.6,60.002576145352926,
155,ENW,ENW_65_hamfylla_150219.wav,n,t,,,,,0,148,148,154,,,,,,,,,,,,,,,n,1,0.6695178230002057,,,113,001,2019_Mar_18_1012,test_run,3.0.6,60.002576145352926,
59,EFW,EFW_29_formen_070319.wav,j,t,,,,,0,149,149,58,,,,,,,,,,,,,,,j,1,0.41978735898737796,,,113,001,2019_Mar_18_1012,test_run,3.0.6,60.002576145352926,
23,ETW,ETW_23_promenad_070319.wav,j,t,,,,,0,150,150,22,,,,,,,,,,,,,,,j,1,0.35297728099976666,,,113,001,2019_Mar_18_1012,test_run,3.0.6,60.002576145352926,
55,EFW,EFW_25_informera_070319.wav,j,t,,,,,0,151,151,54,,,,,,,,,,,,,,,j,1,0.41944934500497766,,,113,001,2019_Mar_18_1012,test_run,3.0.6,60.002576145352926,
9,ETW,ETW_9_haarmed_070319.wav,j,t,,,,,0,152,152,8,,,,,,,,,,,,,,,j,1,0.6194117540144362,,,113,001,2019_Mar_18_1012,test_run,3.0.6,60.002576145352926,
11,ETW,ETW_11_period_070319.wav,j,t,,,,,0,153,153,10,,,,,,,,,,,,,,,j,1,0.6671624519804027,,,113,001,2019_Mar_18_1012,test_run,3.0.6,60.002576145352926,
120,ENW,ENW_30_sojera_150219.wav,n,t,,,,,0,154,154,119,,,,,,,,,,,,,,,n,1,0.9023105829837732,,,113,001,2019_Mar_18_1012,test_run,3.0.6,60.002576145352926,
137,ENW,ENW_47_oafläppen_150219.wav,n,t,,,,,0,155,155,136,,,,,,,,,,,,,,,n,1,0.6520876779977698,,,113,001,2019_Mar_18_1012,test_run,3.0.6,60.002576145352926,
2,ETW,ETW_2_skillnad_070319.wav,j,t,,,,,0,156,156,1,,,,,,,,,,,,,,,j,1,0.3194245240010787,,,113,001,2019_Mar_18_1012,test_run,3.0.6,60.002576145352926,
54,EFW,EFW_24_foersvinner_070319.wav,j,t,,,,,0,157,157,53,,,,,,,,,,,,,,,j,1,0.46949480901821516,,,113,001,2019_Mar_18_1012,test_run,3.0.6,60.002576145352926,
37,EFW,EFW_7_sociala_070319.wav,j,t,,,,,0,158,158,36,,,,,,,,,,,,,,,j,1,0.6028222070017364,,,113,001,2019_Mar_18_1012,test_run,3.0.6,60.002576145352926,
143,ENW,ENW_53_svarmvisso_150219.wav,n,t,,,,,0,159,159,142,,,,,,,,,,,,,,,n,1,0.7353324680007063,,,113,001,2019_Mar_18_1012,test_run,3.0.6,60.002576145352926,
71,EFW,EFW_41_infinna_070319.wav,j,t,,,,,0,160,160,70,,,,,,,,,,,,,,,j,1,0.43565467599546537,,,113,001,2019_Mar_18_1012,test_run,3.0.6,60.002576145352926,
95,ENW,ENW_5_spoamisk_150219.wav,n,t,,,,,0,161,161,94,,,,,,,,,,,,,,,n,1,0.31945723900571465,,,113,001,2019_Mar_18_1012,test_run,3.0.6,60.002576145352926,
65,EFW,EFW_35_affaarer_070319.wav,j,t,,,,,0,162,162,64,,,,,,,,,,,,,,,j,1,0.535426339978585,,,113,001,2019_Mar_18_1012,test_run,3.0.6,60.002576145352926,
49,EFW,EFW_19_roerelse_070319.wav,j,t,,,,,0,163,163,48,,,,,,,,,,,,,,,j,1,0.285797371994704,,,113,001,2019_Mar_18_1012,test_run,3.0.6,60.002576145352926,
153,ENW,ENW_63_femyrisk_150219.wav,n,t,,,,,0,164,164,152,,,,,,,,,,,,,,,n,1,0.5030022609862499,,,113,001,2019_Mar_18_1012,test_run,3.0.6,60.002576145352926,
24,ETW,ETW_24_oeverfloed_070319.wav,j,t,,,,,0,165,165,23,,,,,,,,,,,,,,,j,1,0.535869901010301,,,113,001,2019_Mar_18_1012,test_run,3.0.6,60.002576145352926,
134,ENW,ENW_44_inlivna_150219.wav,n,t,,,,,0,166,166,133,,,,,,,,,,,,,,,n,1,0.31898591297795065,,,113,001,2019_Mar_18_1012,test_run,3.0.6,60.002576145352926,
140,ENW,ENW_50_omsänare_150219.wav,n,t,,,,,0,167,167,139,,,,,,,,,,,,,,,n,1,0.3529836709785741,,,113,001,2019_Mar_18_1012,test_run,3.0.6,60.002576145352926,
157,ENW,ENW_67_oafreskar_150219.wav,n,t,,,,,0,168,168,156,,,,,,,,,,,,,,,n,1,0.2836483319988474,,,113,001,2019_Mar_18_1012,test_run,3.0.6,60.002576145352926,
52,EFW,EFW_22_normala_070319.wav,j,t,,,,,0,169,169,51,,,,,,,,,,,,,,,j,1,0.5696997070044745,,,113,001,2019_Mar_18_1012,test_run,3.0.6,60.002576145352926,
93,ENW,ENW_3_vissorens_150219.wav,n,t,,,,,0,170,170,92,,,,,,,,,,,,,,,n,1,0.6696467429865152,,,113,001,2019_Mar_18_1012,test_run,3.0.6,60.002576145352926,
72,EFW,EFW_42_naavaron_070319.wav,j,t,,,,,0,171,171,71,,,,,,,,,,,,,,,j,1,0.3196009279927239,,,113,001,2019_Mar_18_1012,test_run,3.0.6,60.002576145352926,
45,EFW,EFW_15_oeverens_070319.wav,j,t,,,,,0,172,172,44,,,,,,,,,,,,,,,j,1,0.3857834200025536,,,113,001,2019_Mar_18_1012,test_run,3.0.6,60.002576145352926,
21,ETW,ETW_21_marmelad_070319.wav,j,t,,,,,0,173,173,20,,,,,,,,,,,,,,,j,1,0.7021342660009395,,,113,001,2019_Mar_18_1012,test_run,3.0.6,60.002576145352926,
39,EFW,EFW_9_infektion_070319.wav,j,t,,,,,0,174,174,38,,,,,,,,,,,,,,,j,1,0.33378549001645297,,,113,001,2019_Mar_18_1012,test_run,3.0.6,60.002576145352926,
47,EFW,EFW_17_januari_070319.wav,j,t,,,,,0,175,175,46,,,,,,,,,,,,,,,j,1,0.4189045079983771,,,113,001,2019_Mar_18_1012,test_run,3.0.6,60.002576145352926,
178,ENW,ENW_88_marsifen_150219.wav,n,t,,,,,0,176,176,177,,,,,,,,,,,,,,,n,1,0.5029766150109936,,,113,001,2019_Mar_18_1012,test_run,3.0.6,60.002576145352926,
83,EFW,EFW_53_sovrum_070319.wav,j,t,,,,,0,177,177,82,,,,,,,,,,,,,,,j,1,0.35304270798224024,,,113,001,2019_Mar_18_1012,test_run,3.0.6,60.002576145352926,
68,EFW,EFW_38_foerefoell_070319.wav,j,t,,,,,0,178,178,67,,,,,,,,,,,,,,,j,1,0.3863170869881287,,,113,001,2019_Mar_18_1012,test_run,3.0.6,60.002576145352926,
110,ENW,ENW_20_invonen_150219.wav,n,t,,,,,0,179,179,109,,,,,,,,,,,,,,,n,1,1.8671603910042904,,,113,001,2019_Mar_18_1012,test_run,3.0.6,60.002576145352926,
26,TDF,TDF_26_rymd_070319.wav,,,1,rating_t_final.csv,t,final,,,,,0,0,0,0,0,0,0,1,0,0,0,25,,,,,,5,24.571,113,001,2019_Mar_18_1012,test_run,3.0.6,60.002576145352926,
9,TTF,TTF_9_bot_070319.wav,,,1,rating_t_final.csv,t,final,,,,,0,0,0,0,0,0,0,1,0,1,1,8,,,,,,7,8.687,113,001,2019_Mar_18_1012,test_run,3.0.6,60.002576145352926,
12,TTF,TTF_12_smet_070319.wav,,,1,rating_t_final.csv,t,final,,,,,0,0,0,0,0,0,0,1,0,2,2,11,,,,,,7,3.404,113,001,2019_Mar_18_1012,test_run,3.0.6,60.002576145352926,
13,TTF,TTF_13_gjut_070319.wav,,,1,rating_t_final.csv,t,final,,,,,0,0,0,0,0,0,0,1,0,3,3,12,,,,,,7,4.186,113,001,2019_Mar_18_1012,test_run,3.0.6,60.002576145352926,
22,TDF,TDF_22_hed_070319.wav,,,1,rating_t_final.csv,t,final,,,,,0,0,0,0,0,0,0,1,0,4,4,21,,,,,,4,1.021,113,001,2019_Mar_18_1012,test_run,3.0.6,60.002576145352926,
23,TDF,TDF_23_hud_070319.wav,,,1,rating_t_final.csv,t,final,,,,,0,0,0,0,0,0,0,1,0,5,5,22,,,,,,5,3.12,113,001,2019_Mar_18_1012,test_run,3.0.6,60.002576145352926,
17,TDF,TDF_17_sked_070319.wav,,,1,rating_t_final.csv,t,final,,,,,0,0,0,0,0,0,0,1,0,6,6,16,,,,,,4,4.403,113,001,2019_Mar_18_1012,test_run,3.0.6,60.002576145352926,
24,TDF,TDF_24_smid_070319.wav,,,1,rating_t_final.csv,t,final,,,,,0,0,0,0,0,0,0,1,0,7,7,23,,,,,,4,1.354,113,001,2019_Mar_18_1012,test_run,3.0.6,60.002576145352926,
5,TTF,TTF_5_voat_070319.wav,,,1,rating_t_final.csv,t,final,,,,,0,0,0,0,0,0,0,1,0,8,8,4,,,,,,6,1.137,113,001,2019_Mar_18_1012,test_run,3.0.6,60.002576145352926,
11,TTF,TTF_11_svit_070319.wav,,,1,rating_t_final.csv,t,final,,,,,0,0,0,0,0,0,0,1,0,9,9,10,,,,,,7,1.37,113,001,2019_Mar_18_1012,test_run,3.0.6,60.002576145352926,
15,TTF,TTF_15_not_070319.wav,,,1,rating_t_final.csv,t,final,,,,,0,0,0,0,0,0,0,1,0,10,10,14,,,,,,7,0.704,113,001,2019_Mar_18_1012,test_run,3.0.6,60.002576145352926,
28,TDF,TDF_28_brand_070319.wav,,,1,rating_t_final.csv,t,final,,,,,0,0,0,0,0,0,0,1,0,11,11,27,,,,,,4,0.537,113,001,2019_Mar_18_1012,test_run,3.0.6,60.002576145352926,
20,TDF,TDF_20_god_070319.wav,,,1,rating_t_final.csv,t,final,,,,,0,0,0,0,0,0,0,1,0,12,12,19,,,,,,5,0.47,113,001,2019_Mar_18_1012,test_run,3.0.6,60.002576145352926,
2,TTF,TTF_2_vet_070319.wav,,,1,rating_t_final.csv,t,final,,,,,0,0,0,0,0,0,0,1,0,13,13,1,,,,,,7,0.921,113,001,2019_Mar_18_1012,test_run,3.0.6,60.002576145352926,
19,TDF,TDF_19_sjod_070319.wav,,,1,rating_t_final.csv,t,final,,,,,0,0,0,0,0,0,0,1,0,14,14,18,,,,,,4,0.62,113,001,2019_Mar_18_1012,test_run,3.0.6,60.002576145352926,
30,TDF,TDF_30_sladd_070319.wav,,,1,rating_t_final.csv,t,final,,,,,0,0,0,0,0,0,0,1,0,15,15,29,,,,,,5,1.738,113,001,2019_Mar_18_1012,test_run,3.0.6,60.002576145352926,
25,TDF,TDF_25_synd_070319.wav,,,1,rating_t_final.csv,t,final,,,,,0,0,0,0,0,0,0,1,0,16,16,24,,,,,,4,0.537,113,001,2019_Mar_18_1012,test_run,3.0.6,60.002576145352926,
32,TDF,TDF_32_hoard_070319.wav,,,1,rating_t_final.csv,t,final,,,,,0,0,0,0,0,0,0,1,0,17,17,31,,,,,,4,0.62,113,001,2019_Mar_18_1012,test_run,3.0.6,60.002576145352926,
21,TDF,TDF_21_ljod _070319.wav,,,1,rating_t_final.csv,t,final,,,,,0,0,0,0,0,0,0,1,0,18,18,20,,,,,,3,0.404,113,001,2019_Mar_18_1012,test_run,3.0.6,60.002576145352926,
10,TTF,TTF_10_broet_070319.wav,,,1,rating_t_final.csv,t,final,,,,,0,0,0,0,0,0,0,1,0,19,19,9,,,,,,4,3.254,113,001,2019_Mar_18_1012,test_run,3.0.6,60.002576145352926,
1,TTF,TTF_1_rit_070319.wav,,,1,rating_t_final.csv,t,final,,,,,0,0,0,0,0,0,0,1,0,20,20,0,,,,,,5,0.437,113,001,2019_Mar_18_1012,test_run,3.0.6,60.002576145352926,
29,TDF,TDF_29_baadd_070319.wav,,,1,rating_t_final.csv,t,final,,,,,0,0,0,0,0,0,0,1,0,21,21,28,,,,,,4,1.335,113,001,2019_Mar_18_1012,test_run,3.0.6,60.002576145352926,
3,TTF,TTF_3_raat_070319.wav,,,1,rating_t_final.csv,t,final,,,,,0,0,0,0,0,0,0,1,0,22,22,2,,,,,,5,2.437,113,001,2019_Mar_18_1012,test_run,3.0.6,60.002576145352926,
18,TDF,TDF_18_sjud_070319.wav,,,1,rating_t_final.csv,t,final,,,,,0,0,0,0,0,0,0,1,0,23,23,17,,,,,,4,0.604,113,001,2019_Mar_18_1012,test_run,3.0.6,60.002576145352926,
31,TDF,TDF_31_brodd_070319.wav,,,1,rating_t_final.csv,t,final,,,,,0,0,0,0,0,0,0,1,0,24,24,30,,,,,,5,1.687,113,001,2019_Mar_18_1012,test_run,3.0.6,60.002576145352926,
6,TTF,TTF_6_voart_070319.wav,,,1,rating_t_final.csv,t,final,,,,,0,0,0,0,0,0,0,1,0,25,25,5,,,,,,5,0.484,113,001,2019_Mar_18_1012,test_run,3.0.6,60.002576145352926,
8,TTF,TTF_8_noet_070319.wav,,,1,rating_t_final.csv,t,final,,,,,0,0,0,0,0,0,0,1,0,26,26,7,,,,,,5,0.937,113,001,2019_Mar_18_1012,test_run,3.0.6,60.002576145352926,
27,TDF,TDF_27_sand_070319.wav,,,1,rating_t_final.csv,t,final,,,,,0,0,0,0,0,0,0,1,0,27,27,26,,,,,,5,1.787,113,001,2019_Mar_18_1012,test_run,3.0.6,60.002576145352926,
14,TTF,TTF_14_mot_070319.wav,,,1,rating_t_final.csv,t,final,,,,,0,0,0,0,0,0,0,1,0,28,28,13,,,,,,5,0.687,113,001,2019_Mar_18_1012,test_run,3.0.6,60.002576145352926,
7,TTF,TTF_7_vit_070319.wav,,,1,rating_t_final.csv,t,final,,,,,0,0,0,0,0,0,0,1,0,29,29,6,,,,,,5,0.57,113,001,2019_Mar_18_1012,test_run,3.0.6,60.002576145352926,
4,TTF,TTF_4_roet_070319.wav,,,1,rating_t_final.csv,t,final,,,,,0,0,0,0,0,0,0,1,0,30,30,3,,,,,,5,2.554,113,001,2019_Mar_18_1012,test_run,3.0.6,60.002576145352926,
16,TTF,TTF_16_font_070319.wav,,,1,rating_t_final.csv,t,final,,,,,0,0,0,0,0,0,0,1,0,31,31,15,,,,,,6,1.42,113,001,2019_Mar_18_1012,test_run,3.0.6,60.002576145352926,
19,TTF,TTF_19_skoet_070319.wav,,,1,rating_d_final.csv,d,final,,,,,0,0,0,0,0,1,1,0,0,0,0,18,,,,,,5,7.603,113,001,2019_Mar_18_1012,test_run,3.0.6,60.002576145352926,
3,TDF,TDF_3_raad_070319.wav,,,1,rating_d_final.csv,d,final,,,,,0,0,0,0,0,1,1,0,0,1,1,2,,,,,,3,1.221,113,001,2019_Mar_18_1012,test_run,3.0.6,60.002576145352926,
20,TTF,TTF_20_got_070319.wav,,,1,rating_d_final.csv,d,final,,,,,0,0,0,0,0,1,1,0,0,2,2,19,,,,,,5,1.17,113,001,2019_Mar_18_1012,test_run,3.0.6,60.002576145352926,
4,TDF,TDF_4_rod_070319.wav,,,1,rating_d_final.csv,d,final,,,,,0,0,0,0,0,1,1,0,0,3,3,3,,,,,,3,1.021,113,001,2019_Mar_18_1012,test_run,3.0.6,60.002576145352926,
16,TDF,TDF_16_fond_070319.wav,,,1,rating_d_final.csv,d,final,,,,,0,0,0,0,0,1,1,0,0,4,4,15,,,,,,3,1.403,113,001,2019_Mar_18_1012,test_run,3.0.6,60.002576145352926,
17,TTF,TTF_17_sket_070319.wav,,,1,rating_d_final.csv,d,final,,,,,0,0,0,0,0,1,1,0,0,5,5,16,,,,,,5,1.02,113,001,2019_Mar_18_1012,test_run,3.0.6,60.002576145352926,
11,TDF,TDF_11_svid_070319.wav,,,1,rating_d_final.csv,d,final,,,,,0,0,0,0,0,1,1,0,0,6,6,10,,,,,,5,1.404,113,001,2019_Mar_18_1012,test_run,3.0.6,60.002576145352926,
21,TTF,TTF_21_gjoet_070319.wav,,,1,rating_d_final.csv,d,final,,,,,0,0,0,0,0,1,1,0,0,7,7,20,,,,,,5,1.253,113,001,2019_Mar_18_1012,test_run,3.0.6,60.002576145352926,
12,TDF,TDF_12_smed_070319.wav,,,1,rating_d_final.csv,d,final,,,,,0,0,0,0,0,1,1,0,0,8,8,11,,,,,,4,1.238,113,001,2019_Mar_18_1012,test_run,3.0.6,60.002576145352926,
15,TDF,TDF_15_nod_070319.wav,,,1,rating_d_final.csv,d,final,,,,,0,0,0,0,0,1,1,0,0,9,9,14,,,,,,4,0.936,113,001,2019_Mar_18_1012,test_run,3.0.6,60.002576145352926,
26,TTF,TTF_26_rymt_070319.wav,,,1,rating_d_final.csv,d,final,,,,,0,0,0,0,0,1,1,0,0,10,10,25,,,,,,5,1.571,113,001,2019_Mar_18_1012,test_run,3.0.6,60.002576145352926,
1,TDF,TDF_1_rid_070319.wav,,,1,rating_d_final.csv,d,final,,,,,0,0,0,0,0,1,1,0,0,11,11,0,,,,,,4,2.604,113,001,2019_Mar_18_1012,test_run,3.0.6,60.002576145352926,
8,TDF,TDF_8_nod_070319.wav,,,1,rating_d_final.csv,d,final,,,,,0,0,0,0,0,1,1,0,0,12,12,7,,,,,,4,0.871,113,001,2019_Mar_18_1012,test_run,3.0.6,60.002576145352926,
2,TDF,TDF_2_ved_070319.wav,,,1,rating_d_final.csv,d,final,,,,,0,0,0,0,0,1,1,0,0,13,13,1,,,,,,4,0.887,113,001,2019_Mar_18_1012,test_run,3.0.6,60.002576145352926,
28,TTF,TTF_28_brant_070319.wav,,,1,rating_d_final.csv,d,final,,,,,0,0,0,0,0,1,1,0,0,14,14,27,,,,,,5,3.587,113,001,2019_Mar_18_1012,test_run,3.0.6,60.002576145352926,
27,TTF,TTF_27_sant_070319.wav,,,1,rating_d_final.csv,d,final,,,,,0,0,0,0,0,1,1,0,0,15,15,26,,,,,,5,1.987,113,001,2019_Mar_18_1012,test_run,3.0.6,60.002576145352926,
18,TTF,TTF_18_skjut_070319.wav,,,1,rating_d_final.csv,d,final,,,,,0,0,0,0,0,1,1,0,0,16,16,17,,,,,,5,0.871,113,001,2019_Mar_18_1012,test_run,3.0.6,60.002576145352926,
9,TDF,TDF_9_bod_070319.wav,,,1,rating_d_final.csv,d,final,,,,,0,0,0,0,0,1,1,0,0,17,17,8,,,,,,6,1.903,113,001,2019_Mar_18_1012,test_run,3.0.6,60.002576145352926,
30,TTF,TTF_30_slatt_070319.wav,,,1,rating_d_final.csv,d,final,,,,,0,0,0,0,0,1,1,0,0,18,18,29,,,,,,7,1.07,113,001,2019_Mar_18_1012,test_run,3.0.6,60.002576145352926,
5,TDF,TDF_5_voad_070319.wav,,,1,rating_d_final.csv,d,final,,,,,0,0,0,0,0,1,1,0,0,19,19,4,,,,,,3,1.304,113,001,2019_Mar_18_1012,test_run,3.0.6,60.002576145352926,
32,TTF,TTF_32_hoart_070319.wav,,,1,rating_d_final.csv,d,final,,,,,0,0,0,0,0,1,1,0,0,20,20,31,,,,,,6,0.92,113,001,2019_Mar_18_1012,test_run,3.0.6,60.002576145352926,
6,TDF,TDF_6_voard_070319.wav,,,1,rating_d_final.csv,d,final,,,,,0,0,0,0,0,1,1,0,0,21,21,5,,,,,,3,0.887,113,001,2019_Mar_18_1012,test_run,3.0.6,60.002576145352926,
29,TTF,TTF_29_bett_070319.wav,,,1,rating_d_final.csv,d,final,,,,,0,0,0,0,0,1,1,0,0,22,22,28,,,,,,5,2.104,113,001,2019_Mar_18_1012,test_run,3.0.6,60.002576145352926,
24,TTF,TTF_24_smit_070319.wav,,,1,rating_d_final.csv,d,final,,,,,0,0,0,0,0,1,1,0,0,23,23,23,,,,,,5,1.286,113,001,2019_Mar_18_1012,test_run,3.0.6,60.002576145352926,
31,TTF,TTF_31_brott_070319.wav,,,1,rating_d_final.csv,d,final,,,,,0,0,0,0,0,1,1,0,0,24,24,30,,,,,,4,0.738,113,001,2019_Mar_18_1012,test_run,3.0.6,60.002576145352926,
7,TDF,TDF_7_vid_070319.wav,,,1,rating_d_final.csv,d,final,,,,,0,0,0,0,0,1,1,0,0,25,25,6,,,,,,5,1.57,113,001,2019_Mar_18_1012,test_run,3.0.6,60.002576145352926,
23,TTF,TTF_23_hut_070319.wav,,,1,rating_d_final.csv,d,final,,,,,0,0,0,0,0,1,1,0,0,26,26,22,,,,,,5,0.887,113,001,2019_Mar_18_1012,test_run,3.0.6,60.002576145352926,
10,TDF,TDF_10_brod_070319.wav,,,1,rating_d_final.csv,d,final,,,,,0,0,0,0,0,1,1,0,0,27,27,9,,,,,,4,0.736,113,001,2019_Mar_18_1012,test_run,3.0.6,60.002576145352926,
13,TDF,TDF_13_ljud_070319.wav,,,1,rating_d_final.csv,d,final,,,,,0,0,0,0,0,1,1,0,0,28,28,12,,,,,,3,0.721,113,001,2019_Mar_18_1012,test_run,3.0.6,60.002576145352926,
25,TTF,TTF_25_synt_070319.wav,,,1,rating_d_final.csv,d,final,,,,,0,0,0,0,0,1,1,0,0,29,29,24,,,,,,6,0.719,113,001,2019_Mar_18_1012,test_run,3.0.6,60.002576145352926,
14,TDF,TDF_14_mod_070319.wav,,,1,rating_d_final.csv,d,final,,,,,0,0,0,0,0,1,1,0,0,30,30,13,,,,,,3,2.021,113,001,2019_Mar_18_1012,test_run,3.0.6,60.002576145352926,
22,TTF,TTF_22_het_070319.wav,,,1,rating_d_final.csv,d,final,,,,,0,0,0,0,0,1,1,0,0,31,31,21,,,,,,5,0.787,113,001,2019_Mar_18_1012,test_run,3.0.6,60.002576145352926,
23,TTI,TTI_23_toa_150219.wav,,,2,rating_d_initial.csv,d,initial,,,,,0,1,1,1,0,0,0,0,0,0,0,22,,,,,,5,3.97,113,001,2019_Mar_18_1012,test_run,3.0.6,60.002576145352926,
9,TDI,TDI_9_dill_150219.wav,,,2,rating_d_initial.csv,d,initial,,,,,0,1,1,1,0,0,0,0,0,1,1,8,,,,,,7,3.004,113,001,2019_Mar_18_1012,test_run,3.0.6,60.002576145352926,
16,TTI,TTI_16_ton_150219.wav,,,2,rating_d_initial.csv,d,initial,,,,,0,1,1,1,0,0,0,0,0,2,2,15,,,,,,5,2.038,113,001,2019_Mar_18_1012,test_run,3.0.6,60.002576145352926,
3,TDI,TDI_3_dal_150219.wav,,,2,rating_d_initial.csv,d,initial,,,,,0,1,1,1,0,0,0,0,0,3,3,2,,,,,,6,2.321,113,001,2019_Mar_18_1012,test_run,3.0.6,60.002576145352926,
12,TDI,TDI_12_doa_150219.wav,,,2,rating_d_initial.csv,d,initial,,,,,0,1,1,1,0,0,0,0,0,4,4,11,,,,,,6,0.937,113,001,2019_Mar_18_1012,test_run,3.0.6,60.002576145352926,
25,TTI,TTI_25_taar_150219.wav,,,2,rating_d_initial.csv,d,initial,,,,,0,1,1,1,0,0,0,0,0,5,5,24,,,,,,7,0.986,113,001,2019_Mar_18_1012,test_run,3.0.6,60.002576145352926,
6,TDI,TDI_6_deg_150219.wav,,,2,rating_d_initial.csv,d,initial,,,,,0,1,1,1,0,0,0,0,0,6,6,5,,,,,,7,0.937,113,001,2019_Mar_18_1012,test_run,3.0.6,60.002576145352926,
5,TDI,TDI_5_dass_150219.wav,,,2,rating_d_initial.csv,d,initial,,,,,0,1,1,1,0,0,0,0,0,7,7,4,,,,,,7,0.936,113,001,2019_Mar_18_1012,test_run,3.0.6,60.002576145352926,
11,TDI,TDI_11_dipp_150219.wav,,,2,rating_d_initial.csv,d,initial,,,,,0,1,1,1,0,0,0,0,0,8,8,10,,,,,,7,0.72,113,001,2019_Mar_18_1012,test_run,3.0.6,60.002576145352926,
4,TDI,TDI_4_dam_150219.wav,,,2,rating_d_initial.csv,d,initial,,,,,0,1,1,1,0,0,0,0,0,9,9,3,,,,,,7,0.821,113,001,2019_Mar_18_1012,test_run,3.0.6,60.002576145352926,
18,TTI,TTI_18_tum_150219.wav,,,2,rating_d_initial.csv,d,initial,,,,,0,1,1,1,0,0,0,0,0,10,10,17,,,,,,5,1.62,113,001,2019_Mar_18_1012,test_run,3.0.6,60.002576145352926,
24,TTI,TTI_24_taack_150219.wav,,,2,rating_d_initial.csv,d,initial,,,,,0,1,1,1,0,0,0,0,0,11,11,23,,,,,,7,1.971,113,001,2019_Mar_18_1012,test_run,3.0.6,60.002576145352926,
10,TDI,TDI_10_ditt_150219.wav,,,2,rating_d_initial.csv,d,initial,,,,,0,1,1,1,0,0,0,0,0,12,12,9,,,,,,7,0.854,113,001,2019_Mar_18_1012,test_run,3.0.6,60.002576145352926,
20,TTI,TTI_20_tur_150219.wav,,,2,rating_d_initial.csv,d,initial,,,,,0,1,1,1,0,0,0,0,0,13,13,19,,,,,,5,1.121,113,001,2019_Mar_18_1012,test_run,3.0.6,60.002576145352926,
21,TTI,TTI_21_tugg_150219.wav,,,2,rating_d_initial.csv,d,initial,,,,,0,1,1,1,0,0,0,0,0,14,14,20,,,,,,5,0.804,113,001,2019_Mar_18_1012,test_run,3.0.6,60.002576145352926,
27,TTI,TTI_27_toem_150219.wav,,,2,rating_d_initial.csv,d,initial,,,,,0,1,1,1,0,0,0,0,0,15,15,26,,,,,,5,1.22,113,001,2019_Mar_18_1012,test_run,3.0.6,60.002576145352926,
26,TTI,TTI_26_toe_150219.wav,,,2,rating_d_initial.csv,d,initial,,,,,0,1,1,1,0,0,0,0,0,16,16,25,,,,,,5,2.67,113,001,2019_Mar_18_1012,test_run,3.0.6,60.002576145352926,
15,TTI,TTI_15_tom_150219.wav,,,2,rating_d_initial.csv,d,initial,,,,,0,1,1,1,0,0,0,0,0,17,17,14,,,,,,5,1.053,113,001,2019_Mar_18_1012,test_run,3.0.6,60.002576145352926,
1,TDI,TDI_1_dag_150219.wav,,,2,rating_d_initial.csv,d,initial,,,,,0,1,1,1,0,0,0,0,0,18,18,0,,,,,,5,0.704,113,001,2019_Mar_18_1012,test_run,3.0.6,60.002576145352926,
8,TDI,TDI_8_dia_150219.wav,,,2,rating_d_initial.csv,d,initial,,,,,0,1,1,1,0,0,0,0,0,19,19,7,,,,,,5,1.054,113,001,2019_Mar_18_1012,test_run,3.0.6,60.002576145352926,
14,TDI,TDI_14_dok_150219.wav,,,2,rating_d_initial.csv,d,initial,,,,,0,1,1,1,0,0,0,0,0,20,20,13,,,,,,5,0.854,113,001,2019_Mar_18_1012,test_run,3.0.6,60.002576145352926,
19,TTI,TTI_19_tun_150219.wav,,,2,rating_d_initial.csv,d,initial,,,,,0,1,1,1,0,0,0,0,0,21,21,18,,,,,,5,1.321,113,001,2019_Mar_18_1012,test_run,3.0.6,60.002576145352926,
13,TDI,TDI_13_dog_150219.wav,,,2,rating_d_initial.csv,d,initial,,,,,0,1,1,1,0,0,0,0,0,22,22,12,,,,,,7,1.054,113,001,2019_Mar_18_1012,test_run,3.0.6,60.002576145352926,
17,TTI,TTI_17_topp_150219.wav,,,2,rating_d_initial.csv,d,initial,,,,,0,1,1,1,0,0,0,0,0,23,23,16,,,,,,7,1.471,113,001,2019_Mar_18_1012,test_run,3.0.6,60.002576145352926,
2,TDI,TDI_2_dagg_150219.wav,,,2,rating_d_initial.csv,d,initial,,,,,0,1,1,1,0,0,0,0,0,24,24,1,,,,,,7,0.736,113,001,2019_Mar_18_1012,test_run,3.0.6,60.002576145352926,
22,TTI,TTI_22_ty_150219.wav,,,2,rating_d_initial.csv,d,initial,,,,,0,1,1,1,0,0,0,0,0,25,25,21,,,,,,7,0.854,113,001,2019_Mar_18_1012,test_run,3.0.6,60.002576145352926,
7,TDI,TDI_7_den_150219.wav,,,2,rating_d_initial.csv,d,initial,,,,,0,1,1,1,0,0,0,0,0,26,26,6,,,,,,7,0.704,113,001,2019_Mar_18_1012,test_run,3.0.6,60.002576145352926,
23,TDI,TDI_23_doa_150219.wav,,,2,rating_t_initial.csv,t,initial,,,,,0,1,1,1,0,1,1,1,0,0,0,22,,,,,,3,8.171,113,001,2019_Mar_18_1012,test_run,3.0.6,60.002576145352926,
9,TTI,TTI_9_till_150219.wav,,,2,rating_t_initial.csv,t,initial,,,,,0,1,1,1,0,1,1,1,0,1,1,8,,,,,,5,3.854,113,001,2019_Mar_18_1012,test_run,3.0.6,60.002576145352926,
10,TTI,TTI_10_titt_150219.wav,,,2,rating_t_initial.csv,t,initial,,,,,0,1,1,1,0,1,1,1,0,2,2,9,,,,,,5,3.02,113,001,2019_Mar_18_1012,test_run,3.0.6,60.002576145352926,
20,TDI,TDI_20_dur_150219.wav,,,2,rating_t_initial.csv,t,initial,,,,,0,1,1,1,0,1,1,1,0,3,3,19,,,,,,5,5.937,113,001,2019_Mar_18_1012,test_run,3.0.6,60.002576145352926,
1,TTI,TTI_1_tag_150219.wav,,,2,rating_t_initial.csv,t,initial,,,,,0,1,1,1,0,1,1,1,0,4,4,0,,,,,,5,8.071,113,001,2019_Mar_18_1012,test_run,3.0.6,60.002576145352926,
17,TDI,TDI_17_dopp_150219.wav,,,2,rating_t_initial.csv,t,initial,,,,,0,1,1,1,0,1,1,1,0,5,5,16,,,,,,5,1.955,113,001,2019_Mar_18_1012,test_run,3.0.6,60.002576145352926,
18,TDI,TDI_18_dum_150219.wav,,,2,rating_t_initial.csv,t,initial,,,,,0,1,1,1,0,1,1,1,0,6,6,17,,,,,,6,2.103,113,001,2019_Mar_18_1012,test_run,3.0.6,60.002576145352926,
8,TTI,TTI_8_tia_150219.wav,,,2,rating_t_initial.csv,t,initial,,,,,0,1,1,1,0,1,1,1,0,7,7,7,,,,,,7,4.154,113,001,2019_Mar_18_1012,test_run,3.0.6,60.002576145352926,
19,TDI,TDI_19_dun_150219.wav,,,2,rating_t_initial.csv,t,initial,,,,,0,1,1,1,0,1,1,1,0,8,8,18,,,,,,5,2.654,113,001,2019_Mar_18_1012,test_run,3.0.6,60.002576145352926,
14,TTI,TTI_14_tok_150219.wav,,,2,rating_t_initial.csv,t,initial,,,,,0,1,1,1,0,1,1,1,0,9,9,13,,,,,,7,2.704,113,001,2019_Mar_18_1012,test_run,3.0.6,60.002576145352926,
2,TTI,TTI_2_tagg_150219.wav,,,2,rating_t_initial.csv,t,initial,,,,,0,1,1,1,0,1,1,1,0,10,10,1,,,,,,7,1.37,113,001,2019_Mar_18_1012,test_run,3.0.6,60.002576145352926,
13,TTI,TTI_13_tog_150219.wav,,,2,rating_t_initial.csv,t,initial,,,,,0,1,1,1,0,1,1,1,0,11,11,12,,,,,,7,1.07,113,001,2019_Mar_18_1012,test_run,3.0.6,60.002576145352926,
25,TDI,TDI_25_daar_150219.wav,,,2,rating_t_initial.csv,t,initial,,,,,0,1,1,1,0,1,1,1,0,12,12,24,,,,,,4,5.787,113,001,2019_Mar_18_1012,test_run,3.0.6,60.002576145352926,
22,TDI,TDI_22_dy_150219.wav,,,2,rating_t_initial.csv,t,initial,,,,,0,1,1,1,0,1,1,1,0,13,13,21,,,,,,5,5.921,113,001,2019_Mar_18_1012,test_run,3.0.6,60.002576145352926,
26,TDI,TDI_26_doe_150219.wav,,,2,rating_t_initial.csv,t,initial,,,,,0,1,1,1,0,1,1,1,0,14,14,25,,,,,,5,6.521,113,001,2019_Mar_18_1012,test_run,3.0.6,60.002576145352926,
6,TTI,TTI_6_teg_150219.wav,,,2,rating_t_initial.csv,t,initial,,,,,0,1,1,1,0,1,1,1,0,15,15,5,,,,,,4,3.67,113,001,2019_Mar_18_1012,test_run,3.0.6,60.002576145352926,
11,TTI,TTI_11_tipp_150219.wav,,,2,rating_t_initial.csv,t,initial,,,,,0,1,1,1,0,1,1,1,0,16,16,10,,,,,,6,2.271,113,001,2019_Mar_18_1012,test_run,3.0.6,60.002576145352926,
27,TDI,TDI_27_doem_edit_150219.wav,,,2,rating_t_initial.csv,t,initial,,,,,0,1,1,1,0,1,1,1,0,17,17,26,,,,,,5,1.938,113,001,2019_Mar_18_1012,test_run,3.0.6,60.002576145352926,
5,TTI,TTI_5_tass_150219.wav,,,2,rating_t_initial.csv,t,initial,,,,,0,1,1,1,0,1,1,1,0,18,18,4,,,,,,5,1.487,113,001,2019_Mar_18_1012,test_run,3.0.6,60.002576145352926,
24,TDI,TDI_24_daack_150219.wav,,,2,rating_t_initial.csv,t,initial,,,,,0,1,1,1,0,1,1,1,0,19,19,23,,,,,,6,3.753,113,001,2019_Mar_18_1012,test_run,3.0.6,60.002576145352926,
12,TTI,TTI_12_toa_150219.wav,,,2,rating_t_initial.csv,t,initial,,,,,0,1,1,1,0,1,1,1,0,20,20,11,,,,,,6,1.038,113,001,2019_Mar_18_1012,test_run,3.0.6,60.002576145352926,
4,TTI,TTI_4_tam_150219.wav,,,2,rating_t_initial.csv,t,initial,,,,,0,1,1,1,0,1,1,1,0,21,21,3,,,,,,5,1.354,113,001,2019_Mar_18_1012,test_run,3.0.6,60.002576145352926,
15,TDI,TDI_15_dom_150219.wav,,,2,rating_t_initial.csv,t,initial,,,,,0,1,1,1,0,1,1,1,0,22,22,14,,,,,,5,1.22,113,001,2019_Mar_18_1012,test_run,3.0.6,60.002576145352926,
21,TDI,TDI_21_dugg_150219.wav,,,2,rating_t_initial.csv,t,initial,,,,,0,1,1,1,0,1,1,1,0,23,23,20,,,,,,5,0.986,113,001,2019_Mar_18_1012,test_run,3.0.6,60.002576145352926,
16,TDI,TDI_16_don_150219.wav,,,2,rating_t_initial.csv,t,initial,,,,,0,1,1,1,0,1,1,1,0,24,24,15,,,,,,5,0.887,113,001,2019_Mar_18_1012,test_run,3.0.6,60.002576145352926,
3,TTI,TTI_3_tal_150219.wav,,,2,rating_t_initial.csv,t,initial,,,,,0,1,1,1,0,1,1,1,0,25,25,2,,,,,,5,2.254,113,001,2019_Mar_18_1012,test_run,3.0.6,60.002576145352926,
7,TTI,TTI_7_tenn_150219.wav,,,2,rating_t_initial.csv,t,initial,,,,,0,1,1,1,0,1,1,1,0,26,26,6,,,,,,5,0.787,113,001,2019_Mar_18_1012,test_run,3.0.6,60.002576145352926,
