item,item_cond,sound,corr_ans,group,block_id,listname,rating_for,position,trials.thisRepN,trials.thisTrialN,trials.thisN,trials.thisIndex,run_block_type.thisRepN,run_block_type.thisTrialN,run_block_type.thisN,run_block_type.thisIndex,routine.thisRepN,routine.thisTrialN,routine.thisN,routine.thisIndex,rating_trials.thisRepN,rating_trials.thisTrialN,rating_trials.thisN,rating_trials.thisIndex,key_resp_1.keys,key_resp_1.rt,key_resp_2.keys,key_resp_2.corr,key_resp_2.rt,rating_1.response,rating_1.rt,participant,session,date,expName,psychopyVersion,frameRate,
,,,,,,,,,,,,,,,,,,,,,,,,,space,5.453905367990956,,,,,,114,001,2019_Mar_18_1055,test_run,3.0.6,59.97717555743073,
100,ENW,ENW_10_skinnamer_150219.wav,n,c ,,,,,0,0,0,99,,,,,,,,,,,,,,,n,1,1.5691787850228138,,,114,001,2019_Mar_18_1055,test_run,3.0.6,59.97717555743073,
37,EFW,EFW_7_sociala_070319.wav,j,c ,,,,,0,1,1,36,,,,,,,,,,,,,,,j,1,4.7026749170036055,,,114,001,2019_Mar_18_1055,test_run,3.0.6,59.97717555743073,
48,EFW,EFW_18_nummer_070319.wav,j,c ,,,,,0,2,2,47,,,,,,,,,,,,,,,j,1,0.15209173699258827,,,114,001,2019_Mar_18_1055,test_run,3.0.6,59.97717555743073,
180,ENW,ENW_90_skrivinar_150219.wav,n,c ,,,,,0,3,3,179,,,,,,,,,,,,,,,n,1,1.652176999981748,,,114,001,2019_Mar_18_1055,test_run,3.0.6,59.97717555743073,
42,EFW,EFW_12_foeremoal_070319.wav,j,c ,,,,,0,4,4,41,,,,,,,,,,,,,,,j,1,0.9857324689801317,,,114,001,2019_Mar_18_1055,test_run,3.0.6,59.97717555743073,
140,ENW,ENW_50_omsänare_150219.wav,n,c ,,,,,0,5,5,139,,,,,,,,,,,,,,,n,1,0.7359952819824684,,,114,001,2019_Mar_18_1055,test_run,3.0.6,59.97717555743073,
149,ENW,ENW_59_kyrkmänning_150219.wav,n,c ,,,,,0,6,6,148,,,,,,,,,,,,,,,n,1,1.735928200010676,,,114,001,2019_Mar_18_1055,test_run,3.0.6,59.97717555743073,
170,ENW,ENW_80_tjarfera_150219.wav,n,c ,,,,,0,7,7,169,,,,,,,,,,,,,,,n,1,0.7355147030029912,,,114,001,2019_Mar_18_1055,test_run,3.0.6,59.97717555743073,
26,ECW,ECW_26_kroenikoeren_070319.wav,j,c ,,,,,0,8,8,25,,,,,,,,,,,,,,,j,1,0.8697626450157259,,,114,001,2019_Mar_18_1055,test_run,3.0.6,59.97717555743073,
108,ENW,ENW_18_moalursena_150219.wav,n,c ,,,,,0,9,9,107,,,,,,,,,,,,,,,n,1,0.6855339559842832,,,114,001,2019_Mar_18_1055,test_run,3.0.6,59.97717555743073,
85,EFW,EFW_55_oroar_070319.wav,j,c ,,,,,0,10,10,84,,,,,,,,,,,,,,,j,1,0.5025016829895321,,,114,001,2019_Mar_18_1055,test_run,3.0.6,59.97717555743073,
82,EFW,EFW_52_framhoalla_070319.wav,j,c ,,,,,0,11,11,81,,,,,,,,,,,,,,,j,1,0.5355293820030056,,,114,001,2019_Mar_18_1055,test_run,3.0.6,59.97717555743073,
93,ENW,ENW_3_vissorens_150219.wav,n,c ,,,,,0,12,12,92,,,,,,,,,,,,,,,n,1,0.4686000309884548,,,114,001,2019_Mar_18_1055,test_run,3.0.6,59.97717555743073,
61,EFW,EFW_31_jaamfoera_070319.wav,j,c ,,,,,0,13,13,60,,,,,,,,,,,,,,,j,1,0.5689552599797025,,,114,001,2019_Mar_18_1055,test_run,3.0.6,59.97717555743073,
137,ENW,ENW_47_oafläppen_150219.wav,n,c ,,,,,0,14,14,136,,,,,,,,,,,,,,,n,1,0.5194824360078201,,,114,001,2019_Mar_18_1055,test_run,3.0.6,59.97717555743073,
72,EFW,EFW_42_naavaron_070319.wav,j,c ,,,,,0,15,15,71,,,,,,,,,,,,,,,j,1,0.7004249900055584,,,114,001,2019_Mar_18_1055,test_run,3.0.6,59.97717555743073,
17,ECW,ECW_17_majonnaas_070319.wav,j,c ,,,,,0,16,16,16,,,,,,,,,,,,,,,j,1,0.5356190130114555,,,114,001,2019_Mar_18_1055,test_run,3.0.6,59.97717555743073,
18,ECW,ECW_18_morkulla_070319.wav,j,c ,,,,,0,17,17,17,,,,,,,,,,,,,,,j,1,0.4689055430062581,,,114,001,2019_Mar_18_1055,test_run,3.0.6,59.97717555743073,
152,ENW,ENW_62_ljullepilja_150219.wav,n,c ,,,,,0,18,18,151,,,,,,,,,,,,,,,n,1,0.6028551500057802,,,114,001,2019_Mar_18_1055,test_run,3.0.6,59.97717555743073,
164,ENW,ENW_74_malsera_150219.wav,n,c ,,,,,0,19,19,163,,,,,,,,,,,,,,,n,1,0.7025072040269151,,,114,001,2019_Mar_18_1055,test_run,3.0.6,59.97717555743073,
68,EFW,EFW_38_foerefoell_070319.wav,j,c ,,,,,0,20,20,67,,,,,,,,,,,,,,,j,1,0.585413138003787,,,114,001,2019_Mar_18_1055,test_run,3.0.6,59.97717555743073,
94,ENW,ENW_4_kyllfaren_150219.wav,n,c ,,,,,0,21,21,93,,,,,,,,,,,,,,,n,1,1.4356087449996267,,,114,001,2019_Mar_18_1055,test_run,3.0.6,59.97717555743073,
148,ENW,ENW_58_malvossa_150219.wav,n,c ,,,,,0,22,22,147,,,,,,,,,,,,,,,n,1,0.418686204997357,,,114,001,2019_Mar_18_1055,test_run,3.0.6,59.97717555743073,
158,ENW,ENW_68_presionar_150219.wav,n,c ,,,,,0,23,23,157,,,,,,,,,,,,,,,n,1,0.6856828810123261,,,114,001,2019_Mar_18_1055,test_run,3.0.6,59.97717555743073,
64,EFW,EFW_34_sommar_070319.wav,j,c ,,,,,0,24,24,63,,,,,,,,,,,,,,,j,1,0.41883210200467147,,,114,001,2019_Mar_18_1055,test_run,3.0.6,59.97717555743073,
84,EFW,EFW_54_romaner_070319.wav,j,c ,,,,,0,25,25,83,,,,,,,,,,,,,,,j,1,0.5695134949928615,,,114,001,2019_Mar_18_1055,test_run,3.0.6,59.97717555743073,
119,ENW,ENW_29_uppskira_150219.wav,n,c ,,,,,0,26,26,118,,,,,,,,,,,,,,,n,1,0.5692905409960076,,,114,001,2019_Mar_18_1055,test_run,3.0.6,59.97717555743073,
71,EFW,EFW_41_infinna_070319.wav,j,c ,,,,,0,27,27,70,,,,,,,,,,,,,,,j,1,0.46947496800567023,,,114,001,2019_Mar_18_1055,test_run,3.0.6,59.97717555743073,
63,EFW,EFW_33_elva_070319.wav,j,c ,,,,,0,28,28,62,,,,,,,,,,,,,,,j,1,0.46908940200228244,,,114,001,2019_Mar_18_1055,test_run,3.0.6,59.97717555743073,
157,ENW,ENW_67_oafreskar_150219.wav,n,c ,,,,,0,29,29,156,,,,,,,,,,,,,,,n,1,0.45244835401535966,,,114,001,2019_Mar_18_1055,test_run,3.0.6,59.97717555743073,
103,ENW,ENW_13_forvaron_150219.wav,n,c ,,,,,0,30,30,102,,,,,,,,,,,,,,,n,1,1.3189634169975761,,,114,001,2019_Mar_18_1055,test_run,3.0.6,59.97717555743073,
36,EFW,EFW_6_massa_070319.wav,j,c ,,,,,0,31,31,35,,,,,,,,,,,,,,,j,1,0.3364088929956779,,,114,001,2019_Mar_18_1055,test_run,3.0.6,59.97717555743073,
16,ECW,ECW_16_skinskalle_070319.wav,j,c ,,,,,0,32,32,15,,,,,,,,,,,,,,,j,1,0.4191570929833688,,,114,001,2019_Mar_18_1055,test_run,3.0.6,59.97717555743073,
98,ENW,ENW_8_haväras_150219.wav,n,c ,,,,,0,33,33,97,,,,,,,,,,,,,,,n,1,0.5190344599832315,,,114,001,2019_Mar_18_1055,test_run,3.0.6,59.97717555743073,
116,ENW,ENW_26_anufera_150219.wav,n,c ,,,,,0,34,34,115,,,,,,,,,,,,,,,n,1,0.4856738809903618,,,114,001,2019_Mar_18_1055,test_run,3.0.6,59.97717555743073,
146,ENW,ENW_56_lysskarna_150219.wav,n,c ,,,,,0,35,35,145,,,,,,,,,,,,,,,n,1,0.40222122098202817,,,114,001,2019_Mar_18_1055,test_run,3.0.6,59.97717555743073,
13,ECW,ECW_13_kanonform_070319.wav,j,c ,,,,,0,36,36,12,,,,,,,,,,,,,,,j,1,0.41968438000185415,,,114,001,2019_Mar_18_1055,test_run,3.0.6,59.97717555743073,
45,EFW,EFW_15_oeverens_070319.wav,j,c ,,,,,0,37,37,44,,,,,,,,,,,,,,,j,1,0.4531101390020922,,,114,001,2019_Mar_18_1055,test_run,3.0.6,59.97717555743073,
53,EFW,EFW_23_aamne_070319.wav,j,c ,,,,,0,38,38,52,,,,,,,,,,,,,,,j,1,0.4671533369983081,,,114,001,2019_Mar_18_1055,test_run,3.0.6,59.97717555743073,
169,ENW,ENW_79_lyxmare_150219.wav,n,c ,,,,,0,39,39,168,,,,,,,,,,,,,,,n,1,0.4193054100032896,,,114,001,2019_Mar_18_1055,test_run,3.0.6,59.97717555743073,
40,EFW,EFW_10_laarare_070319.wav,j,c ,,,,,0,40,40,39,,,,,,,,,,,,,,,j,1,0.41903319500852376,,,114,001,2019_Mar_18_1055,test_run,3.0.6,59.97717555743073,
101,ENW,ENW_11_fränna_150219.wav,n,c ,,,,,0,41,41,100,,,,,,,,,,,,,,,n,1,0.45263916402473114,,,114,001,2019_Mar_18_1055,test_run,3.0.6,59.97717555743073,
57,EFW,EFW_27_analysera_070319.wav,j,c ,,,,,0,42,42,56,,,,,,,,,,,,,,,j,1,0.3189551380055491,,,114,001,2019_Mar_18_1055,test_run,3.0.6,59.97717555743073,
88,EFW,EFW_58_examen_070319.wav,j,c ,,,,,0,43,43,87,,,,,,,,,,,,,,,j,1,0.4192089519929141,,,114,001,2019_Mar_18_1055,test_run,3.0.6,59.97717555743073,
130,ENW,ENW_40_knipackar_150219.wav,n,c ,,,,,0,44,44,129,,,,,,,,,,,,,,,n,1,0.5190404160239268,,,114,001,2019_Mar_18_1055,test_run,3.0.6,59.97717555743073,
139,ENW,ENW_49_hälskrena_150219.wav,n,c ,,,,,0,45,45,138,,,,,,,,,,,,,,,n,1,0.5693704650038853,,,114,001,2019_Mar_18_1055,test_run,3.0.6,59.97717555743073,
49,EFW,EFW_19_roerelse_070319.wav,j,c ,,,,,0,46,46,48,,,,,,,,,,,,,,,j,1,0.3524061370117124,,,114,001,2019_Mar_18_1055,test_run,3.0.6,59.97717555743073,
55,EFW,EFW_25_informera_070319.wav,j,c ,,,,,0,47,47,54,,,,,,,,,,,,,,,j,1,0.4529989900183864,,,114,001,2019_Mar_18_1055,test_run,3.0.6,59.97717555743073,
156,ENW,ENW_66_voarsmenar_150219.wav,n,c ,,,,,0,48,48,155,,,,,,,,,,,,,,,n,1,0.4357760139973834,,,114,001,2019_Mar_18_1055,test_run,3.0.6,59.97717555743073,
138,ENW,ENW_48_skyjamsen_150219.wav,n,c ,,,,,0,49,49,137,,,,,,,,,,,,,,,n,1,0.43557092201081105,,,114,001,2019_Mar_18_1055,test_run,3.0.6,59.97717555743073,
78,EFW,EFW_48_varifroan_070319.wav,j,c ,,,,,0,50,50,77,,,,,,,,,,,,,,,j,1,0.7531233899935614,,,114,001,2019_Mar_18_1055,test_run,3.0.6,59.97717555743073,
32,EFW,EFW_2_snarare_070319.wav,j,c ,,,,,0,51,51,31,,,,,,,,,,,,,,,j,1,0.4025633480050601,,,114,001,2019_Mar_18_1055,test_run,3.0.6,59.97717555743073,
47,EFW,EFW_17_januari_070319.wav,j,c ,,,,,0,52,52,46,,,,,,,,,,,,,,,j,1,0.43573656197986566,,,114,001,2019_Mar_18_1055,test_run,3.0.6,59.97717555743073,
65,EFW,EFW_35_affaarer_070319.wav,j,c ,,,,,0,53,53,64,,,,,,,,,,,,,,,j,1,0.40286334199481644,,,114,001,2019_Mar_18_1055,test_run,3.0.6,59.97717555743073,
153,ENW,ENW_63_femyrisk_150219.wav,n,c ,,,,,0,54,54,152,,,,,,,,,,,,,,,n,1,0.5031452249968424,,,114,001,2019_Mar_18_1055,test_run,3.0.6,59.97717555743073,
38,EFW,EFW_8_samman_070319.wav,j,c ,,,,,0,55,55,37,,,,,,,,,,,,,,,j,1,0.43561976798810065,,,114,001,2019_Mar_18_1055,test_run,3.0.6,59.97717555743073,
1,ECW,ECW_1_anka_070319.wav,j,c ,,,,,0,56,56,0,,,,,,,,,,,,,,,j,1,0.3836054049897939,,,114,001,2019_Mar_18_1055,test_run,3.0.6,59.97717555743073,
154,ENW,ENW_64_havskvare_150219.wav,n,c ,,,,,0,57,57,153,,,,,,,,,,,,,,,n,1,0.36934617700171657,,,114,001,2019_Mar_18_1055,test_run,3.0.6,59.97717555743073,
24,ECW,ECW_24_fysiker_070319.wav,j,c ,,,,,0,58,58,23,,,,,,,,,,,,,,,j,1,0.41698392998659983,,,114,001,2019_Mar_18_1055,test_run,3.0.6,59.97717555743073,
87,EFW,EFW_57_loenerna_070319.wav,j,c ,,,,,0,59,59,86,,,,,,,,,,,,,,,j,1,0.4193369860004168,,,114,001,2019_Mar_18_1055,test_run,3.0.6,59.97717555743073,
73,EFW,EFW_43_halvoar_070319.wav,j,c ,,,,,0,60,60,72,,,,,,,,,,,,,,,j,1,0.4865664019889664,,,114,001,2019_Mar_18_1055,test_run,3.0.6,59.97717555743073,
77,EFW,EFW_47_invoanare_070319.wav,j,c ,,,,,0,61,61,76,,,,,,,,,,,,,,,j,1,0.48597304499708116,,,114,001,2019_Mar_18_1055,test_run,3.0.6,59.97717555743073,
124,ENW,ENW_34_jomera_150219.wav,n,c ,,,,,0,62,62,123,,,,,,,,,,,,,,,n,1,0.3860945670166984,,,114,001,2019_Mar_18_1055,test_run,3.0.6,59.97717555743073,
15,ECW,ECW_15_tjuvarna_070319.wav,j,c ,,,,,0,63,63,14,,,,,,,,,,,,,,,j,1,0.32025498102302663,,,114,001,2019_Mar_18_1055,test_run,3.0.6,59.97717555743073,
166,ENW,ENW_76_omfläskor_150219.wav,n,c ,,,,,0,64,64,165,,,,,,,,,,,,,,,n,1,0.41921134301810525,,,114,001,2019_Mar_18_1055,test_run,3.0.6,59.97717555743073,
14,ECW,ECW_14_excellens_070319.wav,j,c ,,,,,0,65,65,13,,,,,,,,,,,,,,,j,1,0.3021978550241329,,,114,001,2019_Mar_18_1055,test_run,3.0.6,59.97717555743073,
89,EFW,EFW_59_filosofin_070319.wav,j,c ,,,,,0,66,66,88,,,,,,,,,,,,,,,j,1,0.3020554200047627,,,114,001,2019_Mar_18_1055,test_run,3.0.6,59.97717555743073,
27,ECW,ECW_27_panorama_070319.wav,j,c ,,,,,0,67,67,26,,,,,,,,,,,,,,,j,1,0.35289974202169105,,,114,001,2019_Mar_18_1055,test_run,3.0.6,59.97717555743073,
29,ECW,ECW_29_mejerier_070319.wav,j,c ,,,,,0,68,68,28,,,,,,,,,,,,,,,j,1,0.2689576229895465,,,114,001,2019_Mar_18_1055,test_run,3.0.6,59.97717555743073,
175,ENW,ENW_85_forlinna_150219.wav,n,c ,,,,,0,69,69,174,,,,,,,,,,,,,,,n,1,0.48568394701578654,,,114,001,2019_Mar_18_1055,test_run,3.0.6,59.97717555743073,
145,ENW,ENW_55_invaskin_150219.wav,n,c ,,,,,0,70,70,144,,,,,,,,,,,,,,,n,1,0.46899677100009285,,,114,001,2019_Mar_18_1055,test_run,3.0.6,59.97717555743073,
58,EFW,EFW_28_olja_070319.wav,j,c ,,,,,0,71,71,57,,,,,,,,,,,,,,,j,1,0.2697149029991124,,,114,001,2019_Mar_18_1055,test_run,3.0.6,59.97717555743073,
131,ENW,ENW_41_vessmaren_150219.wav,n,c ,,,,,0,72,72,130,,,,,,,,,,,,,,,n,1,0.43635864299722016,,,114,001,2019_Mar_18_1055,test_run,3.0.6,59.97717555743073,
81,EFW,EFW_51_seminarier_070319.wav,j,c ,,,,,0,73,73,80,,,,,,,,,,,,,,,j,1,0.318970491993241,,,114,001,2019_Mar_18_1055,test_run,3.0.6,59.97717555743073,
113,ENW,ENW_23_allsänning_150219.wav,n,c ,,,,,0,74,74,112,,,,,,,,,,,,,,,n,1,0.4189858949976042,,,114,001,2019_Mar_18_1055,test_run,3.0.6,59.97717555743073,
150,ENW,ENW_60_lackpenar_150219.wav,n,c ,,,,,0,75,75,149,,,,,,,,,,,,,,,n,1,0.3187932959990576,,,114,001,2019_Mar_18_1055,test_run,3.0.6,59.97717555743073,
147,ENW,ENW_57_flovanning_150219.wav,n,c ,,,,,0,76,76,146,,,,,,,,,,,,,,,n,1,0.4192314450046979,,,114,001,2019_Mar_18_1055,test_run,3.0.6,59.97717555743073,
35,EFW,EFW_5_samhaalle_070319.wav,j,c ,,,,,0,77,77,34,,,,,,,,,,,,,,,j,1,0.5027761039964389,,,114,001,2019_Mar_18_1055,test_run,3.0.6,59.97717555743073,
110,ENW,ENW_20_invonen_150219.wav,n,c ,,,,,0,78,78,109,,,,,,,,,,,,,,,n,1,0.33579105901299044,,,114,001,2019_Mar_18_1055,test_run,3.0.6,59.97717555743073,
75,EFW,EFW_45_innanfoer_070319.wav,j,c ,,,,,0,79,79,74,,,,,,,,,,,,,,,j,1,0.4364759879827034,,,114,001,2019_Mar_18_1055,test_run,3.0.6,59.97717555743073,
30,ECW,ECW_30_recensioner_070319.wav,j,c ,,,,,0,80,80,29,,,,,,,,,,,,,,,j,1,0.35256752200075425,,,114,001,2019_Mar_18_1055,test_run,3.0.6,59.97717555743073,
95,ENW,ENW_5_spoamisk_150219.wav,n,c ,,,,,0,81,81,94,,,,,,,,,,,,,,,n,1,0.3361552999995183,,,114,001,2019_Mar_18_1055,test_run,3.0.6,59.97717555743073,
33,EFW,EFW_3_familjen_070319.wav,j,c ,,,,,0,82,82,32,,,,,,,,,,,,,,,j,1,0.3523780879913829,,,114,001,2019_Mar_18_1055,test_run,3.0.6,59.97717555743073,
122,ENW,ENW_32_fonering_150219.wav,n,c ,,,,,0,83,83,121,,,,,,,,,,,,,,,n,1,0.46912325400626287,,,114,001,2019_Mar_18_1055,test_run,3.0.6,59.97717555743073,
111,ENW,ENW_21_tjulning_150219.wav,n,c ,,,,,0,84,84,110,,,,,,,,,,,,,,,j,0,0.36900235098437406,,,114,001,2019_Mar_18_1055,test_run,3.0.6,59.97717555743073,
134,ENW,ENW_44_inlivna_150219.wav,n,c ,,,,,0,85,85,133,,,,,,,,,,,,,,,n,1,0.9195716399990488,,,114,001,2019_Mar_18_1055,test_run,3.0.6,59.97717555743073,
6,ECW,ECW_6_sila_070319.wav,j,c ,,,,,0,86,86,5,,,,,,,,,,,,,,,n,0,3.2521443580044433,,,114,001,2019_Mar_18_1055,test_run,3.0.6,59.97717555743073,
161,ENW,ENW_71_forskäckla_150219.wav,n,c ,,,,,0,87,87,160,,,,,,,,,,,,,,,n,1,0.3688109620125033,,,114,001,2019_Mar_18_1055,test_run,3.0.6,59.97717555743073,
21,ECW,ECW_21_husera_070319.wav,j,c ,,,,,0,88,88,20,,,,,,,,,,,,,,,j,1,0.3697675579751376,,,114,001,2019_Mar_18_1055,test_run,3.0.6,59.97717555743073,
155,ENW,ENW_65_hamfylla_150219.wav,n,c ,,,,,0,89,89,154,,,,,,,,,,,,,,,n,1,0.41901513701304793,,,114,001,2019_Mar_18_1055,test_run,3.0.6,59.97717555743073,
129,ENW,ENW_39_ljusonar_150219.wav,n,c ,,,,,0,90,90,128,,,,,,,,,,,,,,,n,1,0.38598811798146926,,,114,001,2019_Mar_18_1055,test_run,3.0.6,59.97717555743073,
126,ENW,ENW_36_skymlosa_150219.wav,n,c ,,,,,0,91,91,125,,,,,,,,,,,,,,,j,0,0.8356320339953527,,,114,001,2019_Mar_18_1055,test_run,3.0.6,59.97717555743073,
117,ENW,ENW_27_lyssvinner_150219.wav,n,c ,,,,,0,92,92,116,,,,,,,,,,,,,,,n,1,0.3867059889889788,,,114,001,2019_Mar_18_1055,test_run,3.0.6,59.97717555743073,
97,ENW,ENW_7_flasera_150219.wav,n,c ,,,,,0,93,93,96,,,,,,,,,,,,,,,j,0,0.35215370601508766,,,114,001,2019_Mar_18_1055,test_run,3.0.6,59.97717555743073,
67,EFW,EFW_37_foervisso_070319.wav,j,c ,,,,,0,94,94,66,,,,,,,,,,,,,,,j,1,0.36929388300632127,,,114,001,2019_Mar_18_1055,test_run,3.0.6,59.97717555743073,
143,ENW,ENW_53_svarmvisso_150219.wav,n,c ,,,,,0,95,95,142,,,,,,,,,,,,,,,n,1,0.3362167960149236,,,114,001,2019_Mar_18_1055,test_run,3.0.6,59.97717555743073,
120,ENW,ENW_30_sojera_150219.wav,n,c ,,,,,0,96,96,119,,,,,,,,,,,,,,,n,1,0.3338723609922454,,,114,001,2019_Mar_18_1055,test_run,3.0.6,59.97717555743073,
171,ENW,ENW_81_persifera_150219.wav,n,c ,,,,,0,97,97,170,,,,,,,,,,,,,,,n,1,0.3860159169998951,,,114,001,2019_Mar_18_1055,test_run,3.0.6,59.97717555743073,
109,ENW,ENW_19_morloren_150219.wav,n,c ,,,,,0,98,98,108,,,,,,,,,,,,,,,n,1,0.3361141729983501,,,114,001,2019_Mar_18_1055,test_run,3.0.6,59.97717555743073,
9,ECW,ECW_9_spinna_070319.wav,j,c ,,,,,0,99,99,8,,,,,,,,,,,,,,,j,1,0.252283994021127,,,114,001,2019_Mar_18_1055,test_run,3.0.6,59.97717555743073,
151,ENW,ENW_61_myckskina_150219.wav,n,c ,,,,,0,100,100,150,,,,,,,,,,,,,,,n,1,0.33570708698243834,,,114,001,2019_Mar_18_1055,test_run,3.0.6,59.97717555743073,
86,EFW,EFW_56_mormor_070319.wav,j,c ,,,,,0,101,101,85,,,,,,,,,,,,,,,j,1,0.33590843799174763,,,114,001,2019_Mar_18_1055,test_run,3.0.6,59.97717555743073,
99,ENW,ENW_9_samlemor_150219.wav,n,c ,,,,,0,102,102,98,,,,,,,,,,,,,,,n,1,0.4030625539890025,,,114,001,2019_Mar_18_1055,test_run,3.0.6,59.97717555743073,
127,ENW,ENW_37_spallrivet_150219.wav,n,c ,,,,,0,103,103,126,,,,,,,,,,,,,,,n,1,0.3024063280026894,,,114,001,2019_Mar_18_1055,test_run,3.0.6,59.97717555743073,
76,EFW,EFW_46_foerhoer_070319.wav,j,c ,,,,,0,104,104,75,,,,,,,,,,,,,,,j,1,0.28624101501191035,,,114,001,2019_Mar_18_1055,test_run,3.0.6,59.97717555743073,
46,EFW,EFW_16_lyssna_070319.wav,j,c ,,,,,0,105,105,45,,,,,,,,,,,,,,,j,1,0.3357330220169388,,,114,001,2019_Mar_18_1055,test_run,3.0.6,59.97717555743073,
123,ENW,ENW_33_froamation_150219.wav,n,c ,,,,,0,106,106,122,,,,,,,,,,,,,,,n,1,0.33639254499576055,,,114,001,2019_Mar_18_1055,test_run,3.0.6,59.97717555743073,
173,ENW,ENW_83_fyrskovar_150219.wav,n,c ,,,,,0,107,107,172,,,,,,,,,,,,,,,n,1,0.35208893500384875,,,114,001,2019_Mar_18_1055,test_run,3.0.6,59.97717555743073,
50,EFW,EFW_20_fenomen_070319.wav,j,c ,,,,,0,108,108,49,,,,,,,,,,,,,,,j,1,0.8697669690009207,,,114,001,2019_Mar_18_1055,test_run,3.0.6,59.97717555743073,
8,ECW,ECW_8_fryshus_070319.wav,j,c ,,,,,0,109,109,7,,,,,,,,,,,,,,,j,1,0.5531402430206072,,,114,001,2019_Mar_18_1055,test_run,3.0.6,59.97717555743073,
163,ENW,ENW_73_vimmankalla_150219.wav,n,c ,,,,,0,110,110,162,,,,,,,,,,,,,,,n,1,0.48577581997960806,,,114,001,2019_Mar_18_1055,test_run,3.0.6,59.97717555743073,
41,EFW,EFW_11_maanniskor_070319.wav,j,c ,,,,,0,111,111,40,,,,,,,,,,,,,,,j,1,0.3197908549918793,,,114,001,2019_Mar_18_1055,test_run,3.0.6,59.97717555743073,
54,EFW,EFW_24_foersvinner_070319.wav,j,c ,,,,,0,112,112,53,,,,,,,,,,,,,,,j,1,0.36878277800860815,,,114,001,2019_Mar_18_1055,test_run,3.0.6,59.97717555743073,
70,EFW,EFW_40_miljoner_070319.wav,j,c ,,,,,0,113,113,69,,,,,,,,,,,,,,,j,1,0.33561595901846886,,,114,001,2019_Mar_18_1055,test_run,3.0.6,59.97717555743073,
141,ENW,ENW_51_skillare_150219.wav,n,c ,,,,,0,114,114,140,,,,,,,,,,,,,,,n,1,0.31962274300167337,,,114,001,2019_Mar_18_1055,test_run,3.0.6,59.97717555743073,
165,ENW,ENW_75_foarskining_150219.wav,n,c ,,,,,0,115,115,164,,,,,,,,,,,,,,,n,1,0.4354858470032923,,,114,001,2019_Mar_18_1055,test_run,3.0.6,59.97717555743073,
136,ENW,ENW_46_pommera_150219.wav,n,c ,,,,,0,116,116,135,,,,,,,,,,,,,,,n,1,0.5195734649896622,,,114,001,2019_Mar_18_1055,test_run,3.0.6,59.97717555743073,
4,ECW,ECW_4_skraalla_070319.wav,j,c ,,,,,0,117,117,3,,,,,,,,,,,,,,,j,1,0.28569832499488257,,,114,001,2019_Mar_18_1055,test_run,3.0.6,59.97717555743073,
90,EFW,EFW_60_insulin_070319.wav,j,c ,,,,,0,118,118,89,,,,,,,,,,,,,,,j,1,0.46963505799067207,,,114,001,2019_Mar_18_1055,test_run,3.0.6,59.97717555743073,
107,ENW,ENW_17_kopynnor_150219.wav,n,c ,,,,,0,119,119,106,,,,,,,,,,,,,,,n,1,0.8362379919853993,,,114,001,2019_Mar_18_1055,test_run,3.0.6,59.97717555743073,
162,ENW,ENW_72_urskecken_150219.wav,n,c ,,,,,0,120,120,161,,,,,,,,,,,,,,,n,1,0.4524858699878678,,,114,001,2019_Mar_18_1055,test_run,3.0.6,59.97717555743073,
142,ENW,ENW_52_filofyll_150219.wav,n,c ,,,,,0,121,121,141,,,,,,,,,,,,,,,n,1,0.31974174702190794,,,114,001,2019_Mar_18_1055,test_run,3.0.6,59.97717555743073,
56,EFW,EFW_26_armarna_070319.wav,j,c ,,,,,0,122,122,55,,,,,,,,,,,,,,,j,1,0.43578662801883183,,,114,001,2019_Mar_18_1055,test_run,3.0.6,59.97717555743073,
2,ECW,ECW_2_hinna_070319.wav,j,c ,,,,,0,123,123,1,,,,,,,,,,,,,,,j,1,0.6197958150005434,,,114,001,2019_Mar_18_1055,test_run,3.0.6,59.97717555743073,
39,EFW,EFW_9_infektion_070319.wav,j,c ,,,,,0,124,124,38,,,,,,,,,,,,,,,j,1,0.5190711960021872,,,114,001,2019_Mar_18_1055,test_run,3.0.6,59.97717555743073,
112,ENW,ENW_22_fjäserna_150219.wav,n,c ,,,,,0,125,125,111,,,,,,,,,,,,,,,n,1,0.3523087039939128,,,114,001,2019_Mar_18_1055,test_run,3.0.6,59.97717555743073,
135,ENW,ENW_45_fammoarens_150219.wav,n,c ,,,,,0,126,126,134,,,,,,,,,,,,,,,n,1,0.3024057860020548,,,114,001,2019_Mar_18_1055,test_run,3.0.6,59.97717555743073,
66,EFW,EFW_36_haarifroan_070319.wav,j,c ,,,,,0,127,127,65,,,,,,,,,,,,,,,j,1,0.3863269579887856,,,114,001,2019_Mar_18_1055,test_run,3.0.6,59.97717555743073,
133,ENW,ENW_43_axalän_150219.wav,n,c ,,,,,0,128,128,132,,,,,,,,,,,,,,,n,1,0.3529255260073114,,,114,001,2019_Mar_18_1055,test_run,3.0.6,59.97717555743073,
125,ENW,ENW_35_nymaljen_150219.wav,n,c ,,,,,0,129,129,124,,,,,,,,,,,,,,,n,1,0.5855234000191558,,,114,001,2019_Mar_18_1055,test_run,3.0.6,59.97717555743073,
172,ENW,ENW_82_värskappa_150219.wav,n,c ,,,,,0,130,130,171,,,,,,,,,,,,,,,n,1,0.5856793239945546,,,114,001,2019_Mar_18_1055,test_run,3.0.6,59.97717555743073,
144,ENW,ENW_54_lomering_150219.wav,n,c ,,,,,0,131,131,143,,,,,,,,,,,,,,,n,1,0.3691908729961142,,,114,001,2019_Mar_18_1055,test_run,3.0.6,59.97717555743073,
91,ENW,ENW_1_norsimerar_150219.wav,n,c ,,,,,0,132,132,90,,,,,,,,,,,,,,,n,1,0.35277409898117185,,,114,001,2019_Mar_18_1055,test_run,3.0.6,59.97717555743073,
168,ENW,ENW_78_morvinder_150219.wav,n,c ,,,,,0,133,133,167,,,,,,,,,,,,,,,n,1,0.4521167630155105,,,114,001,2019_Mar_18_1055,test_run,3.0.6,59.97717555743073,
83,EFW,EFW_53_sovrum_070319.wav,j,c ,,,,,0,134,134,82,,,,,,,,,,,,,,,j,1,0.3693191109923646,,,114,001,2019_Mar_18_1055,test_run,3.0.6,59.97717555743073,
7,ECW,ECW_7_marin_070319.wav,j,c ,,,,,0,135,135,6,,,,,,,,,,,,,,,j,1,0.5503626769932453,,,114,001,2019_Mar_18_1055,test_run,3.0.6,59.97717555743073,
92,ENW,ENW_2_overralka_150219.wav,n,c ,,,,,0,136,136,91,,,,,,,,,,,,,,,n,1,0.5358101309975609,,,114,001,2019_Mar_18_1055,test_run,3.0.6,59.97717555743073,
79,EFW,EFW_49_vaasen_070319.wav,j,c ,,,,,0,137,137,78,,,,,,,,,,,,,,,j,1,0.4693757579952944,,,114,001,2019_Mar_18_1055,test_run,3.0.6,59.97717555743073,
96,ENW,ENW_6_vilfroaser_150219.wav,n,c ,,,,,0,138,138,95,,,,,,,,,,,,,,,n,1,0.38386216398794204,,,114,001,2019_Mar_18_1055,test_run,3.0.6,59.97717555743073,
102,ENW,ENW_12_snälmola_150219.wav,n,c ,,,,,0,139,139,101,,,,,,,,,,,,,,,n,1,0.5338849579857197,,,114,001,2019_Mar_18_1055,test_run,3.0.6,59.97717555743073,
25,ECW,ECW_25_oeverfoeras_070319.wav,j,c ,,,,,0,140,140,24,,,,,,,,,,,,,,,j,1,0.4020494599826634,,,114,001,2019_Mar_18_1055,test_run,3.0.6,59.97717555743073,
177,ENW,ENW_87_kloavare_150219.wav,n,c ,,,,,0,141,141,176,,,,,,,,,,,,,,,n,1,0.4524131140206009,,,114,001,2019_Mar_18_1055,test_run,3.0.6,59.97717555743073,
43,EFW,EFW_13_elever_070319.wav,j,c ,,,,,0,142,142,42,,,,,,,,,,,,,,,j,1,0.419163770013256,,,114,001,2019_Mar_18_1055,test_run,3.0.6,59.97717555743073,
167,ENW,ENW_77_somfera_150219.wav,n,c ,,,,,0,143,143,166,,,,,,,,,,,,,,,n,1,0.28622524699312635,,,114,001,2019_Mar_18_1055,test_run,3.0.6,59.97717555743073,
114,ENW,ENW_24_samjoner_150219.wav,n,c ,,,,,0,144,144,113,,,,,,,,,,,,,,,n,1,0.4855681170010939,,,114,001,2019_Mar_18_1055,test_run,3.0.6,59.97717555743073,
62,EFW,EFW_32_fyller_070319.wav,j,c ,,,,,0,145,145,61,,,,,,,,,,,,,,,j,1,0.8192441040009726,,,114,001,2019_Mar_18_1055,test_run,3.0.6,59.97717555743073,
12,ECW,ECW_12_moehippa_070319.wav,j,c ,,,,,0,146,146,11,,,,,,,,,,,,,,,j,1,0.7190728340065107,,,114,001,2019_Mar_18_1055,test_run,3.0.6,59.97717555743073,
132,ENW,ENW_42_hamsforing_150219.wav,n,c ,,,,,0,147,147,131,,,,,,,,,,,,,,,n,1,0.5191591490001883,,,114,001,2019_Mar_18_1055,test_run,3.0.6,59.97717555743073,
60,EFW,EFW_30_officiella_070319.wav,j,c ,,,,,0,148,148,59,,,,,,,,,,,,,,,j,1,0.48639312997693196,,,114,001,2019_Mar_18_1055,test_run,3.0.6,59.97717555743073,
80,EFW,EFW_50_snaalla_070319.wav,j,c ,,,,,0,149,149,79,,,,,,,,,,,,,,,j,1,0.7199476720124949,,,114,001,2019_Mar_18_1055,test_run,3.0.6,59.97717555743073,
159,ENW,ENW_69_mjohusa_150219.wav,n,c ,,,,,0,150,150,158,,,,,,,,,,,,,,,n,1,0.51891999001964,,,114,001,2019_Mar_18_1055,test_run,3.0.6,59.97717555743073,
59,EFW,EFW_29_formen_070319.wav,j,c ,,,,,0,151,151,58,,,,,,,,,,,,,,,j,1,0.43528539399267174,,,114,001,2019_Mar_18_1055,test_run,3.0.6,59.97717555743073,
69,EFW,EFW_39_foersvara_070319.wav,j,c ,,,,,0,152,152,68,,,,,,,,,,,,,,,j,1,0.30304750698269345,,,114,001,2019_Mar_18_1055,test_run,3.0.6,59.97717555743073,
118,ENW,ENW_28_läkermask_150219.wav,n,c ,,,,,0,153,153,117,,,,,,,,,,,,,,,n,1,0.519837979984004,,,114,001,2019_Mar_18_1055,test_run,3.0.6,59.97717555743073,
160,ENW,ENW_70_roklarner_150219.wav,n,c ,,,,,0,154,154,159,,,,,,,,,,,,,,,n,1,0.41949138400377706,,,114,001,2019_Mar_18_1055,test_run,3.0.6,59.97717555743073,
121,ENW,ENW_31_romation_150219.wav,n,c ,,,,,0,155,155,120,,,,,,,,,,,,,,,n,1,0.7690392269869335,,,114,001,2019_Mar_18_1055,test_run,3.0.6,59.97717555743073,
34,EFW,EFW_4_foerminska_070319.wav,j,c ,,,,,0,156,156,33,,,,,,,,,,,,,,,j,1,0.4189876629970968,,,114,001,2019_Mar_18_1055,test_run,3.0.6,59.97717555743073,
3,ECW,ECW_3_virus_070319.wav,j,c ,,,,,0,157,157,2,,,,,,,,,,,,,,,j,1,0.4190373509773053,,,114,001,2019_Mar_18_1055,test_run,3.0.6,59.97717555743073,
22,ECW,ECW_22_anonyma_070319.wav,j,c ,,,,,0,158,158,21,,,,,,,,,,,,,,,j,1,0.5030517730046995,,,114,001,2019_Mar_18_1055,test_run,3.0.6,59.97717555743073,
51,EFW,EFW_21_varierar_070319.wav,j,c ,,,,,0,159,159,50,,,,,,,,,,,,,,,j,1,0.7696897540008649,,,114,001,2019_Mar_18_1055,test_run,3.0.6,59.97717555743073,
31,EFW,EFW_1_allmaan_070319.wav,j,c ,,,,,0,160,160,30,,,,,,,,,,,,,,,j,1,0.46958954402361996,,,114,001,2019_Mar_18_1055,test_run,3.0.6,59.97717555743073,
176,ENW,ENW_86_heloppsin_150219.wav,n,c ,,,,,0,161,161,175,,,,,,,,,,,,,,,n,1,0.4006076780206058,,,114,001,2019_Mar_18_1055,test_run,3.0.6,59.97717555743073,
115,ENW,ENW_25_affierar_150219.wav,n,c ,,,,,0,162,162,114,,,,,,,,,,,,,,,n,1,0.4695687609782908,,,114,001,2019_Mar_18_1055,test_run,3.0.6,59.97717555743073,
52,EFW,EFW_22_normala_070319.wav,j,c ,,,,,0,163,163,51,,,,,,,,,,,,,,,j,1,0.3192313190083951,,,114,001,2019_Mar_18_1055,test_run,3.0.6,59.97717555743073,
179,ENW,ENW_89_mikenspoan_150219.wav,n,c ,,,,,0,164,164,178,,,,,,,,,,,,,,,n,1,0.4357055780128576,,,114,001,2019_Mar_18_1055,test_run,3.0.6,59.97717555743073,
105,ENW,ENW_15_forfeckla_150219.wav,n,c ,,,,,0,165,165,104,,,,,,,,,,,,,,,n,1,0.33572462300071493,,,114,001,2019_Mar_18_1055,test_run,3.0.6,59.97717555743073,
44,EFW,EFW_14_foersoeken_070319.wav,j,c ,,,,,0,166,166,43,,,,,,,,,,,,,,,j,1,1.0025665870052762,,,114,001,2019_Mar_18_1055,test_run,3.0.6,59.97717555743073,
178,ENW,ENW_88_marsifen_150219.wav,n,c ,,,,,0,167,167,177,,,,,,,,,,,,,,,n,1,0.669641946995398,,,114,001,2019_Mar_18_1055,test_run,3.0.6,59.97717555743073,
11,ECW,ECW_11_foersoeka_070319.wav,j,c ,,,,,0,168,168,10,,,,,,,,,,,,,,,j,1,0.5531326960190199,,,114,001,2019_Mar_18_1055,test_run,3.0.6,59.97717555743073,
10,ECW,ECW_10_flisa_070319.wav,j,c ,,,,,0,169,169,9,,,,,,,,,,,,,,,j,1,0.5530323800048791,,,114,001,2019_Mar_18_1055,test_run,3.0.6,59.97717555743073,
104,ENW,ENW_14_kärmenor_150219.wav,n,c ,,,,,0,170,170,103,,,,,,,,,,,,,,,n,1,0.502550664008595,,,114,001,2019_Mar_18_1055,test_run,3.0.6,59.97717555743073,
28,ECW,ECW_28_maskinerna_070319.wav,j,c ,,,,,0,171,171,27,,,,,,,,,,,,,,,j,1,0.45281188399530947,,,114,001,2019_Mar_18_1055,test_run,3.0.6,59.97717555743073,
174,ENW,ENW_84_hurmarna_150219.wav,n,c ,,,,,0,172,172,173,,,,,,,,,,,,,,,n,1,0.7524525720218662,,,114,001,2019_Mar_18_1055,test_run,3.0.6,59.97717555743073,
106,ENW,ENW_16_rolinkar_150219.wav,n,c ,,,,,0,173,173,105,,,,,,,,,,,,,,,n,1,0.3195045799948275,,,114,001,2019_Mar_18_1055,test_run,3.0.6,59.97717555743073,
20,ECW,ECW_20_sommarspel_070319.wav,j,c ,,,,,0,174,174,19,,,,,,,,,,,,,,,j,1,0.5695819560205564,,,114,001,2019_Mar_18_1055,test_run,3.0.6,59.97717555743073,
5,ECW,ECW_5_kamma_070319.wav,j,c ,,,,,0,175,175,4,,,,,,,,,,,,,,,j,1,0.6692613380146213,,,114,001,2019_Mar_18_1055,test_run,3.0.6,59.97717555743073,
128,ENW,ENW_38_roakanier_150219.wav,n,c ,,,,,0,176,176,127,,,,,,,,,,,,,,,n,1,0.33540770297986455,,,114,001,2019_Mar_18_1055,test_run,3.0.6,59.97717555743073,
74,EFW,EFW_44_ljusa_070319.wav,j,c ,,,,,0,177,177,73,,,,,,,,,,,,,,,j,1,0.5357910089951474,,,114,001,2019_Mar_18_1055,test_run,3.0.6,59.97717555743073,
23,ECW,ECW_23_maximal_070319.wav,j,c ,,,,,0,178,178,22,,,,,,,,,,,,,,,j,1,0.5359385590127204,,,114,001,2019_Mar_18_1055,test_run,3.0.6,59.97717555743073,
19,ECW,ECW_19_persiska_070319.wav,j,c ,,,,,0,179,179,18,,,,,,,,,,,,,,,j,1,0.31905344099504873,,,114,001,2019_Mar_18_1055,test_run,3.0.6,59.97717555743073,
2,TDF,TDF_2_ved_070319.wav,,,1,rating_d_final.csv,d,final,,,,,0,0,0,0,0,0,0,0,0,0,0,1,,,,,,6,19.304,114,001,2019_Mar_18_1055,test_run,3.0.6,59.97717555743073,
28,TTF,TTF_28_brant_070319.wav,,,1,rating_d_final.csv,d,final,,,,,0,0,0,0,0,0,0,0,0,1,1,27,,,,,,1,2.288,114,001,2019_Mar_18_1055,test_run,3.0.6,59.97717555743073,
25,TTF,TTF_25_synt_070319.wav,,,1,rating_d_final.csv,d,final,,,,,0,0,0,0,0,0,0,0,0,2,2,24,,,,,,1,1.205,114,001,2019_Mar_18_1055,test_run,3.0.6,59.97717555743073,
10,TDF,TDF_10_brod_070319.wav,,,1,rating_d_final.csv,d,final,,,,,0,0,0,0,0,0,0,0,0,3,3,9,,,,,,5,3.688,114,001,2019_Mar_18_1055,test_run,3.0.6,59.97717555743073,
11,TDF,TDF_11_svid_070319.wav,,,1,rating_d_final.csv,d,final,,,,,0,0,0,0,0,0,0,0,0,4,4,10,,,,,,4,6.17,114,001,2019_Mar_18_1055,test_run,3.0.6,59.97717555743073,
24,TTF,TTF_24_smit_070319.wav,,,1,rating_d_final.csv,d,final,,,,,0,0,0,0,0,0,0,0,0,5,5,23,,,,,,1,0.804,114,001,2019_Mar_18_1055,test_run,3.0.6,59.97717555743073,
27,TTF,TTF_27_sant_070319.wav,,,1,rating_d_final.csv,d,final,,,,,0,0,0,0,0,0,0,0,0,6,6,26,,,,,,1,0.77,114,001,2019_Mar_18_1055,test_run,3.0.6,59.97717555743073,
3,TDF,TDF_3_raad_070319.wav,,,1,rating_d_final.csv,d,final,,,,,0,0,0,0,0,0,0,0,0,7,7,2,,,,,,3,2.455,114,001,2019_Mar_18_1055,test_run,3.0.6,59.97717555743073,
6,TDF,TDF_6_voard_070319.wav,,,1,rating_d_final.csv,d,final,,,,,0,0,0,0,0,0,0,0,0,8,8,5,,,,,,6,3.804,114,001,2019_Mar_18_1055,test_run,3.0.6,59.97717555743073,
16,TDF,TDF_16_fond_070319.wav,,,1,rating_d_final.csv,d,final,,,,,0,0,0,0,0,0,0,0,0,9,9,15,,,,,,6,3.054,114,001,2019_Mar_18_1055,test_run,3.0.6,59.97717555743073,
19,TTF,TTF_19_skoet_070319.wav,,,1,rating_d_final.csv,d,final,,,,,0,0,0,0,0,0,0,0,0,10,10,18,,,,,,1,0.586,114,001,2019_Mar_18_1055,test_run,3.0.6,59.97717555743073,
13,TDF,TDF_13_ljud_070319.wav,,,1,rating_d_final.csv,d,final,,,,,0,0,0,0,0,0,0,0,0,11,11,12,,,,,,6,3.221,114,001,2019_Mar_18_1055,test_run,3.0.6,59.97717555743073,
29,TTF,TTF_29_bett_070319.wav,,,1,rating_d_final.csv,d,final,,,,,0,0,0,0,0,0,0,0,0,12,12,28,,,,,,1,1.171,114,001,2019_Mar_18_1055,test_run,3.0.6,59.97717555743073,
12,TDF,TDF_12_smed_070319.wav,,,1,rating_d_final.csv,d,final,,,,,0,0,0,0,0,0,0,0,0,13,13,11,,,,,,6,0.92,114,001,2019_Mar_18_1055,test_run,3.0.6,59.97717555743073,
26,TTF,TTF_26_rymt_070319.wav,,,1,rating_d_final.csv,d,final,,,,,0,0,0,0,0,0,0,0,0,14,14,25,,,,,,1,1.205,114,001,2019_Mar_18_1055,test_run,3.0.6,59.97717555743073,
4,TDF,TDF_4_rod_070319.wav,,,1,rating_d_final.csv,d,final,,,,,0,0,0,0,0,0,0,0,0,15,15,3,,,,,,6,1.554,114,001,2019_Mar_18_1055,test_run,3.0.6,59.97717555743073,
21,TTF,TTF_21_gjoet_070319.wav,,,1,rating_d_final.csv,d,final,,,,,0,0,0,0,0,0,0,0,0,16,16,20,,,,,,1,0.771,114,001,2019_Mar_18_1055,test_run,3.0.6,59.97717555743073,
30,TTF,TTF_30_slatt_070319.wav,,,1,rating_d_final.csv,d,final,,,,,0,0,0,0,0,0,0,0,0,17,17,29,,,,,,1,0.92,114,001,2019_Mar_18_1055,test_run,3.0.6,59.97717555743073,
14,TDF,TDF_14_mod_070319.wav,,,1,rating_d_final.csv,d,final,,,,,0,0,0,0,0,0,0,0,0,18,18,13,,,,,,2,5.004,114,001,2019_Mar_18_1055,test_run,3.0.6,59.97717555743073,
22,TTF,TTF_22_het_070319.wav,,,1,rating_d_final.csv,d,final,,,,,0,0,0,0,0,0,0,0,0,19,19,21,,,,,,1,0.703,114,001,2019_Mar_18_1055,test_run,3.0.6,59.97717555743073,
18,TTF,TTF_18_skjut_070319.wav,,,1,rating_d_final.csv,d,final,,,,,0,0,0,0,0,0,0,0,0,20,20,17,,,,,,1,0.737,114,001,2019_Mar_18_1055,test_run,3.0.6,59.97717555743073,
7,TDF,TDF_7_vid_070319.wav,,,1,rating_d_final.csv,d,final,,,,,0,0,0,0,0,0,0,0,0,21,21,6,,,,,,1,0.721,114,001,2019_Mar_18_1055,test_run,3.0.6,59.97717555743073,
15,TDF,TDF_15_nod_070319.wav,,,1,rating_d_final.csv,d,final,,,,,0,0,0,0,0,0,0,0,0,22,22,14,,,,,,5,4.121,114,001,2019_Mar_18_1055,test_run,3.0.6,59.97717555743073,
9,TDF,TDF_9_bod_070319.wav,,,1,rating_d_final.csv,d,final,,,,,0,0,0,0,0,0,0,0,0,23,23,8,,,,,,1,1.521,114,001,2019_Mar_18_1055,test_run,3.0.6,59.97717555743073,
5,TDF,TDF_5_voad_070319.wav,,,1,rating_d_final.csv,d,final,,,,,0,0,0,0,0,0,0,0,0,24,24,4,,,,,,2,2.17,114,001,2019_Mar_18_1055,test_run,3.0.6,59.97717555743073,
32,TTF,TTF_32_hoart_070319.wav,,,1,rating_d_final.csv,d,final,,,,,0,0,0,0,0,0,0,0,0,25,25,31,,,,,,1,0.737,114,001,2019_Mar_18_1055,test_run,3.0.6,59.97717555743073,
17,TTF,TTF_17_sket_070319.wav,,,1,rating_d_final.csv,d,final,,,,,0,0,0,0,0,0,0,0,0,26,26,16,,,,,,1,0.638,114,001,2019_Mar_18_1055,test_run,3.0.6,59.97717555743073,
20,TTF,TTF_20_got_070319.wav,,,1,rating_d_final.csv,d,final,,,,,0,0,0,0,0,0,0,0,0,27,27,19,,,,,,2,1.787,114,001,2019_Mar_18_1055,test_run,3.0.6,59.97717555743073,
8,TDF,TDF_8_nod_070319.wav,,,1,rating_d_final.csv,d,final,,,,,0,0,0,0,0,0,0,0,0,28,28,7,,,,,,6,1.587,114,001,2019_Mar_18_1055,test_run,3.0.6,59.97717555743073,
1,TDF,TDF_1_rid_070319.wav,,,1,rating_d_final.csv,d,final,,,,,0,0,0,0,0,0,0,0,0,29,29,0,,,,,,5,0.937,114,001,2019_Mar_18_1055,test_run,3.0.6,59.97717555743073,
23,TTF,TTF_23_hut_070319.wav,,,1,rating_d_final.csv,d,final,,,,,0,0,0,0,0,0,0,0,0,30,30,22,,,,,,2,0.937,114,001,2019_Mar_18_1055,test_run,3.0.6,59.97717555743073,
31,TTF,TTF_31_brott_070319.wav,,,1,rating_d_final.csv,d,final,,,,,0,0,0,0,0,0,0,0,0,31,31,30,,,,,,1,0.686,114,001,2019_Mar_18_1055,test_run,3.0.6,59.97717555743073,
4,TTF,TTF_4_roet_070319.wav,,,1,rating_t_final.csv,t,final,,,,,0,0,0,0,0,1,1,1,0,0,0,3,,,,,,5,3.387,114,001,2019_Mar_18_1055,test_run,3.0.6,59.97717555743073,
25,TDF,TDF_25_synd_070319.wav,,,1,rating_t_final.csv,t,final,,,,,0,0,0,0,0,1,1,1,0,1,1,24,,,,,,2,1.453,114,001,2019_Mar_18_1055,test_run,3.0.6,59.97717555743073,
30,TDF,TDF_30_sladd_070319.wav,,,1,rating_t_final.csv,t,final,,,,,0,0,0,0,0,1,1,1,0,2,2,29,,,,,,1,1.087,114,001,2019_Mar_18_1055,test_run,3.0.6,59.97717555743073,
16,TTF,TTF_16_font_070319.wav,,,1,rating_t_final.csv,t,final,,,,,0,0,0,0,0,1,1,1,0,3,3,15,,,,,,6,1.953,114,001,2019_Mar_18_1055,test_run,3.0.6,59.97717555743073,
28,TDF,TDF_28_brand_070319.wav,,,1,rating_t_final.csv,t,final,,,,,0,0,0,0,0,1,1,1,0,4,4,27,,,,,,3,3.621,114,001,2019_Mar_18_1055,test_run,3.0.6,59.97717555743073,
6,TTF,TTF_6_voart_070319.wav,,,1,rating_t_final.csv,t,final,,,,,0,0,0,0,0,1,1,1,0,5,5,5,,,,,,6,2.254,114,001,2019_Mar_18_1055,test_run,3.0.6,59.97717555743073,
2,TTF,TTF_2_vet_070319.wav,,,1,rating_t_final.csv,t,final,,,,,0,0,0,0,0,1,1,1,0,6,6,1,,,,,,6,1.953,114,001,2019_Mar_18_1055,test_run,3.0.6,59.97717555743073,
15,TTF,TTF_15_not_070319.wav,,,1,rating_t_final.csv,t,final,,,,,0,0,0,0,0,1,1,1,0,7,7,14,,,,,,7,0.821,114,001,2019_Mar_18_1055,test_run,3.0.6,59.97717555743073,
14,TTF,TTF_14_mot_070319.wav,,,1,rating_t_final.csv,t,final,,,,,0,0,0,0,0,1,1,1,0,8,8,13,,,,,,7,0.587,114,001,2019_Mar_18_1055,test_run,3.0.6,59.97717555743073,
12,TTF,TTF_12_smet_070319.wav,,,1,rating_t_final.csv,t,final,,,,,0,0,0,0,0,1,1,1,0,9,9,11,,,,,,6,1.521,114,001,2019_Mar_18_1055,test_run,3.0.6,59.97717555743073,
22,TDF,TDF_22_hed_070319.wav,,,1,rating_t_final.csv,t,final,,,,,0,0,0,0,0,1,1,1,0,10,10,21,,,,,,1,0.787,114,001,2019_Mar_18_1055,test_run,3.0.6,59.97717555743073,
27,TDF,TDF_27_sand_070319.wav,,,1,rating_t_final.csv,t,final,,,,,0,0,0,0,0,1,1,1,0,11,11,26,,,,,,4,2.171,114,001,2019_Mar_18_1055,test_run,3.0.6,59.97717555743073,
32,TDF,TDF_32_hoard_070319.wav,,,1,rating_t_final.csv,t,final,,,,,0,0,0,0,0,1,1,1,0,12,12,31,,,,,,2,1.087,114,001,2019_Mar_18_1055,test_run,3.0.6,59.97717555743073,
1,TTF,TTF_1_rit_070319.wav,,,1,rating_t_final.csv,t,final,,,,,0,0,0,0,0,1,1,1,0,13,13,0,,,,,,7,1.904,114,001,2019_Mar_18_1055,test_run,3.0.6,59.97717555743073,
5,TTF,TTF_5_voat_070319.wav,,,1,rating_t_final.csv,t,final,,,,,0,0,0,0,0,1,1,1,0,14,14,4,,,,,,6,1.071,114,001,2019_Mar_18_1055,test_run,3.0.6,59.97717555743073,
19,TDF,TDF_19_sjod_070319.wav,,,1,rating_t_final.csv,t,final,,,,,0,0,0,0,0,1,1,1,0,15,15,18,,,,,,2,1.755,114,001,2019_Mar_18_1055,test_run,3.0.6,59.97717555743073,
26,TDF,TDF_26_rymd_070319.wav,,,1,rating_t_final.csv,t,final,,,,,0,0,0,0,0,1,1,1,0,16,16,25,,,,,,2,1.803,114,001,2019_Mar_18_1055,test_run,3.0.6,59.97717555743073,
24,TDF,TDF_24_smid_070319.wav,,,1,rating_t_final.csv,t,final,,,,,0,0,0,0,0,1,1,1,0,17,17,23,,,,,,1,2.054,114,001,2019_Mar_18_1055,test_run,3.0.6,59.97717555743073,
3,TTF,TTF_3_raat_070319.wav,,,1,rating_t_final.csv,t,final,,,,,0,0,0,0,0,1,1,1,0,18,18,2,,,,,,7,0.737,114,001,2019_Mar_18_1055,test_run,3.0.6,59.97717555743073,
21,TDF,TDF_21_ljod _070319.wav,,,1,rating_t_final.csv,t,final,,,,,0,0,0,0,0,1,1,1,0,19,19,20,,,,,,3,2.421,114,001,2019_Mar_18_1055,test_run,3.0.6,59.97717555743073,
31,TDF,TDF_31_brodd_070319.wav,,,1,rating_t_final.csv,t,final,,,,,0,0,0,0,0,1,1,1,0,20,20,30,,,,,,4,2.437,114,001,2019_Mar_18_1055,test_run,3.0.6,59.97717555743073,
10,TTF,TTF_10_broet_070319.wav,,,1,rating_t_final.csv,t,final,,,,,0,0,0,0,0,1,1,1,0,21,21,9,,,,,,7,0.653,114,001,2019_Mar_18_1055,test_run,3.0.6,59.97717555743073,
11,TTF,TTF_11_svit_070319.wav,,,1,rating_t_final.csv,t,final,,,,,0,0,0,0,0,1,1,1,0,22,22,10,,,,,,7,0.67,114,001,2019_Mar_18_1055,test_run,3.0.6,59.97717555743073,
20,TDF,TDF_20_god_070319.wav,,,1,rating_t_final.csv,t,final,,,,,0,0,0,0,0,1,1,1,0,23,23,19,,,,,,2,3.654,114,001,2019_Mar_18_1055,test_run,3.0.6,59.97717555743073,
18,TDF,TDF_18_sjud_070319.wav,,,1,rating_t_final.csv,t,final,,,,,0,0,0,0,0,1,1,1,0,24,24,17,,,,,,3,2.388,114,001,2019_Mar_18_1055,test_run,3.0.6,59.97717555743073,
7,TTF,TTF_7_vit_070319.wav,,,1,rating_t_final.csv,t,final,,,,,0,0,0,0,0,1,1,1,0,25,25,6,,,,,,6,0.804,114,001,2019_Mar_18_1055,test_run,3.0.6,59.97717555743073,
17,TDF,TDF_17_sked_070319.wav,,,1,rating_t_final.csv,t,final,,,,,0,0,0,0,0,1,1,1,0,26,26,16,,,,,,2,2.17,114,001,2019_Mar_18_1055,test_run,3.0.6,59.97717555743073,
13,TTF,TTF_13_gjut_070319.wav,,,1,rating_t_final.csv,t,final,,,,,0,0,0,0,0,1,1,1,0,27,27,12,,,,,,5,2.538,114,001,2019_Mar_18_1055,test_run,3.0.6,59.97717555743073,
29,TDF,TDF_29_baadd_070319.wav,,,1,rating_t_final.csv,t,final,,,,,0,0,0,0,0,1,1,1,0,28,28,28,,,,,,1,1.387,114,001,2019_Mar_18_1055,test_run,3.0.6,59.97717555743073,
8,TTF,TTF_8_noet_070319.wav,,,1,rating_t_final.csv,t,final,,,,,0,0,0,0,0,1,1,1,0,29,29,7,,,,,,6,0.771,114,001,2019_Mar_18_1055,test_run,3.0.6,59.97717555743073,
23,TDF,TDF_23_hud_070319.wav,,,1,rating_t_final.csv,t,final,,,,,0,0,0,0,0,1,1,1,0,30,30,22,,,,,,2,0.871,114,001,2019_Mar_18_1055,test_run,3.0.6,59.97717555743073,
9,TTF,TTF_9_bot_070319.wav,,,1,rating_t_final.csv,t,final,,,,,0,0,0,0,0,1,1,1,0,31,31,8,,,,,,4,4.953,114,001,2019_Mar_18_1055,test_run,3.0.6,59.97717555743073,
14,TDI,TDI_14_dok_150219.wav,,,2,rating_d_initial.csv,d,initial,,,,,0,1,1,1,0,0,0,0,0,0,0,13,,,,,,7,4.503,114,001,2019_Mar_18_1055,test_run,3.0.6,59.97717555743073,
7,TDI,TDI_7_den_150219.wav,,,2,rating_d_initial.csv,d,initial,,,,,0,1,1,1,0,0,0,0,0,1,1,6,,,,,,7,0.77,114,001,2019_Mar_18_1055,test_run,3.0.6,59.97717555743073,
15,TTI,TTI_15_tom_150219.wav,,,2,rating_d_initial.csv,d,initial,,,,,0,1,1,1,0,0,0,0,0,2,2,14,,,,,,1,0.67,114,001,2019_Mar_18_1055,test_run,3.0.6,59.97717555743073,
17,TTI,TTI_17_topp_150219.wav,,,2,rating_d_initial.csv,d,initial,,,,,0,1,1,1,0,0,0,0,0,3,3,16,,,,,,4,0.97,114,001,2019_Mar_18_1055,test_run,3.0.6,59.97717555743073,
13,TDI,TDI_13_dog_150219.wav,,,2,rating_d_initial.csv,d,initial,,,,,0,1,1,1,0,0,0,0,0,4,4,12,,,,,,6,1.886,114,001,2019_Mar_18_1055,test_run,3.0.6,59.97717555743073,
21,TTI,TTI_21_tugg_150219.wav,,,2,rating_d_initial.csv,d,initial,,,,,0,1,1,1,0,0,0,0,0,5,5,20,,,,,,2,1.987,114,001,2019_Mar_18_1055,test_run,3.0.6,59.97717555743073,
20,TTI,TTI_20_tur_150219.wav,,,2,rating_d_initial.csv,d,initial,,,,,0,1,1,1,0,0,0,0,0,6,6,19,,,,,,5,0.821,114,001,2019_Mar_18_1055,test_run,3.0.6,59.97717555743073,
22,TTI,TTI_22_ty_150219.wav,,,2,rating_d_initial.csv,d,initial,,,,,0,1,1,1,0,0,0,0,0,7,7,21,,,,,,1,1.237,114,001,2019_Mar_18_1055,test_run,3.0.6,59.97717555743073,
25,TTI,TTI_25_taar_150219.wav,,,2,rating_d_initial.csv,d,initial,,,,,0,1,1,1,0,0,0,0,0,8,8,24,,,,,,2,2.97,114,001,2019_Mar_18_1055,test_run,3.0.6,59.97717555743073,
18,TTI,TTI_18_tum_150219.wav,,,2,rating_d_initial.csv,d,initial,,,,,0,1,1,1,0,0,0,0,0,9,9,17,,,,,,2,3.154,114,001,2019_Mar_18_1055,test_run,3.0.6,59.97717555743073,
10,TDI,TDI_10_ditt_150219.wav,,,2,rating_d_initial.csv,d,initial,,,,,0,1,1,1,0,0,0,0,0,10,10,9,,,,,,7,0.671,114,001,2019_Mar_18_1055,test_run,3.0.6,59.97717555743073,
11,TDI,TDI_11_dipp_150219.wav,,,2,rating_d_initial.csv,d,initial,,,,,0,1,1,1,0,0,0,0,0,11,11,10,,,,,,7,0.788,114,001,2019_Mar_18_1055,test_run,3.0.6,59.97717555743073,
26,TTI,TTI_26_toe_150219.wav,,,2,rating_d_initial.csv,d,initial,,,,,0,1,1,1,0,0,0,0,0,12,12,25,,,,,,5,0.82,114,001,2019_Mar_18_1055,test_run,3.0.6,59.97717555743073,
5,TDI,TDI_5_dass_150219.wav,,,2,rating_d_initial.csv,d,initial,,,,,0,1,1,1,0,0,0,0,0,13,13,4,,,,,,7,1.22,114,001,2019_Mar_18_1055,test_run,3.0.6,59.97717555743073,
2,TDI,TDI_2_dagg_150219.wav,,,2,rating_d_initial.csv,d,initial,,,,,0,1,1,1,0,0,0,0,0,14,14,1,,,,,,7,0.871,114,001,2019_Mar_18_1055,test_run,3.0.6,59.97717555743073,
24,TTI,TTI_24_taack_150219.wav,,,2,rating_d_initial.csv,d,initial,,,,,0,1,1,1,0,0,0,0,0,15,15,23,,,,,,2,1.153,114,001,2019_Mar_18_1055,test_run,3.0.6,59.97717555743073,
23,TTI,TTI_23_toa_150219.wav,,,2,rating_d_initial.csv,d,initial,,,,,0,1,1,1,0,0,0,0,0,16,16,22,,,,,,3,2.371,114,001,2019_Mar_18_1055,test_run,3.0.6,59.97717555743073,
4,TDI,TDI_4_dam_150219.wav,,,2,rating_d_initial.csv,d,initial,,,,,0,1,1,1,0,0,0,0,0,17,17,3,,,,,,7,0.703,114,001,2019_Mar_18_1055,test_run,3.0.6,59.97717555743073,
19,TTI,TTI_19_tun_150219.wav,,,2,rating_d_initial.csv,d,initial,,,,,0,1,1,1,0,0,0,0,0,18,18,18,,,,,,2,0.771,114,001,2019_Mar_18_1055,test_run,3.0.6,59.97717555743073,
1,TDI,TDI_1_dag_150219.wav,,,2,rating_d_initial.csv,d,initial,,,,,0,1,1,1,0,0,0,0,0,19,19,0,,,,,,7,0.67,114,001,2019_Mar_18_1055,test_run,3.0.6,59.97717555743073,
27,TTI,TTI_27_toem_150219.wav,,,2,rating_d_initial.csv,d,initial,,,,,0,1,1,1,0,0,0,0,0,20,20,26,,,,,,3,2.62,114,001,2019_Mar_18_1055,test_run,3.0.6,59.97717555743073,
8,TDI,TDI_8_dia_150219.wav,,,2,rating_d_initial.csv,d,initial,,,,,0,1,1,1,0,0,0,0,0,21,21,7,,,,,,7,0.937,114,001,2019_Mar_18_1055,test_run,3.0.6,59.97717555743073,
16,TTI,TTI_16_ton_150219.wav,,,2,rating_d_initial.csv,d,initial,,,,,0,1,1,1,0,0,0,0,0,22,22,15,,,,,,1,0.72,114,001,2019_Mar_18_1055,test_run,3.0.6,59.97717555743073,
12,TDI,TDI_12_doa_150219.wav,,,2,rating_d_initial.csv,d,initial,,,,,0,1,1,1,0,0,0,0,0,23,23,11,,,,,,7,0.737,114,001,2019_Mar_18_1055,test_run,3.0.6,59.97717555743073,
6,TDI,TDI_6_deg_150219.wav,,,2,rating_d_initial.csv,d,initial,,,,,0,1,1,1,0,0,0,0,0,24,24,5,,,,,,6,1.937,114,001,2019_Mar_18_1055,test_run,3.0.6,59.97717555743073,
3,TDI,TDI_3_dal_150219.wav,,,2,rating_d_initial.csv,d,initial,,,,,0,1,1,1,0,0,0,0,0,25,25,2,,,,,,7,0.87,114,001,2019_Mar_18_1055,test_run,3.0.6,59.97717555743073,
9,TDI,TDI_9_dill_150219.wav,,,2,rating_d_initial.csv,d,initial,,,,,0,1,1,1,0,0,0,0,0,26,26,8,,,,,,6,0.62,114,001,2019_Mar_18_1055,test_run,3.0.6,59.97717555743073,
9,TTI,TTI_9_till_150219.wav,,,2,rating_t_initial.csv,t,initial,,,,,0,1,1,1,0,1,1,1,0,0,0,8,,,,,,2,1.438,114,001,2019_Mar_18_1055,test_run,3.0.6,59.97717555743073,
5,TTI,TTI_5_tass_150219.wav,,,2,rating_t_initial.csv,t,initial,,,,,0,1,1,1,0,1,1,1,0,1,1,4,,,,,,2,1.004,114,001,2019_Mar_18_1055,test_run,3.0.6,59.97717555743073,
16,TDI,TDI_16_don_150219.wav,,,2,rating_t_initial.csv,t,initial,,,,,0,1,1,1,0,1,1,1,0,2,2,15,,,,,,1,0.938,114,001,2019_Mar_18_1055,test_run,3.0.6,59.97717555743073,
26,TDI,TDI_26_doe_150219.wav,,,2,rating_t_initial.csv,t,initial,,,,,0,1,1,1,0,1,1,1,0,3,3,25,,,,,,1,0.854,114,001,2019_Mar_18_1055,test_run,3.0.6,59.97717555743073,
22,TDI,TDI_22_dy_150219.wav,,,2,rating_t_initial.csv,t,initial,,,,,0,1,1,1,0,1,1,1,0,4,4,21,,,,,,1,0.721,114,001,2019_Mar_18_1055,test_run,3.0.6,59.97717555743073,
14,TTI,TTI_14_tok_150219.wav,,,2,rating_t_initial.csv,t,initial,,,,,0,1,1,1,0,1,1,1,0,5,5,13,,,,,,5,1.388,114,001,2019_Mar_18_1055,test_run,3.0.6,59.97717555743073,
13,TTI,TTI_13_tog_150219.wav,,,2,rating_t_initial.csv,t,initial,,,,,0,1,1,1,0,1,1,1,0,6,6,12,,,,,,6,1.403,114,001,2019_Mar_18_1055,test_run,3.0.6,59.97717555743073,
6,TTI,TTI_6_teg_150219.wav,,,2,rating_t_initial.csv,t,initial,,,,,0,1,1,1,0,1,1,1,0,7,7,5,,,,,,2,1.721,114,001,2019_Mar_18_1055,test_run,3.0.6,59.97717555743073,
11,TTI,TTI_11_tipp_150219.wav,,,2,rating_t_initial.csv,t,initial,,,,,0,1,1,1,0,1,1,1,0,8,8,10,,,,,,5,0.72,114,001,2019_Mar_18_1055,test_run,3.0.6,59.97717555743073,
23,TDI,TDI_23_doa_150219.wav,,,2,rating_t_initial.csv,t,initial,,,,,0,1,1,1,0,1,1,1,0,9,9,22,,,,,,6,0.704,114,001,2019_Mar_18_1055,test_run,3.0.6,59.97717555743073,
17,TDI,TDI_17_dopp_150219.wav,,,2,rating_t_initial.csv,t,initial,,,,,0,1,1,1,0,1,1,1,0,10,10,16,,,,,,7,0.854,114,001,2019_Mar_18_1055,test_run,3.0.6,59.97717555743073,
18,TDI,TDI_18_dum_150219.wav,,,2,rating_t_initial.csv,t,initial,,,,,0,1,1,1,0,1,1,1,0,11,11,17,,,,,,1,5.72,114,001,2019_Mar_18_1055,test_run,3.0.6,59.97717555743073,
7,TTI,TTI_7_tenn_150219.wav,,,2,rating_t_initial.csv,t,initial,,,,,0,1,1,1,0,1,1,1,0,12,12,6,,,,,,1,0.953,114,001,2019_Mar_18_1055,test_run,3.0.6,59.97717555743073,
24,TDI,TDI_24_daack_150219.wav,,,2,rating_t_initial.csv,t,initial,,,,,0,1,1,1,0,1,1,1,0,13,13,23,,,,,,1,0.753,114,001,2019_Mar_18_1055,test_run,3.0.6,59.97717555743073,
20,TDI,TDI_20_dur_150219.wav,,,2,rating_t_initial.csv,t,initial,,,,,0,1,1,1,0,1,1,1,0,14,14,19,,,,,,1,1.038,114,001,2019_Mar_18_1055,test_run,3.0.6,59.97717555743073,
21,TDI,TDI_21_dugg_150219.wav,,,2,rating_t_initial.csv,t,initial,,,,,0,1,1,1,0,1,1,1,0,15,15,20,,,,,,1,1.47,114,001,2019_Mar_18_1055,test_run,3.0.6,59.97717555743073,
2,TTI,TTI_2_tagg_150219.wav,,,2,rating_t_initial.csv,t,initial,,,,,0,1,1,1,0,1,1,1,0,16,16,1,,,,,,3,1.287,114,001,2019_Mar_18_1055,test_run,3.0.6,59.97717555743073,
4,TTI,TTI_4_tam_150219.wav,,,2,rating_t_initial.csv,t,initial,,,,,0,1,1,1,0,1,1,1,0,17,17,3,,,,,,2,1.153,114,001,2019_Mar_18_1055,test_run,3.0.6,59.97717555743073,
1,TTI,TTI_1_tag_150219.wav,,,2,rating_t_initial.csv,t,initial,,,,,0,1,1,1,0,1,1,1,0,18,18,0,,,,,,2,2.171,114,001,2019_Mar_18_1055,test_run,3.0.6,59.97717555743073,
25,TDI,TDI_25_daar_150219.wav,,,2,rating_t_initial.csv,t,initial,,,,,0,1,1,1,0,1,1,1,0,19,19,24,,,,,,1,0.62,114,001,2019_Mar_18_1055,test_run,3.0.6,59.97717555743073,
27,TDI,TDI_27_doem_edit_150219.wav,,,2,rating_t_initial.csv,t,initial,,,,,0,1,1,1,0,1,1,1,0,20,20,26,,,,,,1,0.671,114,001,2019_Mar_18_1055,test_run,3.0.6,59.97717555743073,
19,TDI,TDI_19_dun_150219.wav,,,2,rating_t_initial.csv,t,initial,,,,,0,1,1,1,0,1,1,1,0,21,21,18,,,,,,1,0.787,114,001,2019_Mar_18_1055,test_run,3.0.6,59.97717555743073,
12,TTI,TTI_12_toa_150219.wav,,,2,rating_t_initial.csv,t,initial,,,,,0,1,1,1,0,1,1,1,0,22,22,11,,,,,,6,0.721,114,001,2019_Mar_18_1055,test_run,3.0.6,59.97717555743073,
15,TDI,TDI_15_dom_150219.wav,,,2,rating_t_initial.csv,t,initial,,,,,0,1,1,1,0,1,1,1,0,23,23,14,,,,,,1,1.471,114,001,2019_Mar_18_1055,test_run,3.0.6,59.97717555743073,
3,TTI,TTI_3_tal_150219.wav,,,2,rating_t_initial.csv,t,initial,,,,,0,1,1,1,0,1,1,1,0,24,24,2,,,,,,5,0.804,114,001,2019_Mar_18_1055,test_run,3.0.6,59.97717555743073,
8,TTI,TTI_8_tia_150219.wav,,,2,rating_t_initial.csv,t,initial,,,,,0,1,1,1,0,1,1,1,0,25,25,7,,,,,,7,0.77,114,001,2019_Mar_18_1055,test_run,3.0.6,59.97717555743073,
10,TTI,TTI_10_titt_150219.wav,,,2,rating_t_initial.csv,t,initial,,,,,0,1,1,1,0,1,1,1,0,26,26,9,,,,,,2,1.455,114,001,2019_Mar_18_1055,test_run,3.0.6,59.97717555743073,
