item,item_cond,sound,corr_ans,group,block_id,listname,rating_for,position,trials.thisRepN,trials.thisTrialN,trials.thisN,trials.thisIndex,run_block_type.thisRepN,run_block_type.thisTrialN,run_block_type.thisN,run_block_type.thisIndex,routine.thisRepN,routine.thisTrialN,routine.thisN,routine.thisIndex,rating_trials.thisRepN,rating_trials.thisTrialN,rating_trials.thisN,rating_trials.thisIndex,key_resp_1.keys,key_resp_1.rt,key_resp_2.keys,key_resp_2.corr,key_resp_2.rt,rating_1.response,rating_1.rt,participant,session,date,expName,psychopyVersion,frameRate,
,,,,,,,,,,,,,,,,,,,,,,,,,m,24.60021237199544,,,,,,115,001,2019_Mar_18_1253,test_run,3.0.6,59.99583676010359,
149,ENW,ENW_59_kyrkmänning_150219.wav,n,t,,,,,0,0,0,148,,,,,,,,,,,,,,,n,1,2.7024846609856468,,,115,001,2019_Mar_18_1253,test_run,3.0.6,59.99583676010359,
180,ENW,ENW_90_skrivinar_150219.wav,n,t,,,,,0,1,1,179,,,,,,,,,,,,,,,n,1,1.9006275720021222,,,115,001,2019_Mar_18_1253,test_run,3.0.6,59.99583676010359,
18,ETW,ETW_18_husfasad_070319.wav,j,t,,,,,0,2,2,17,,,,,,,,,,,,,,,j,1,1.3524382099858485,,,115,001,2019_Mar_18_1253,test_run,3.0.6,59.99583676010359,
157,ENW,ENW_67_oafreskar_150219.wav,n,t,,,,,0,3,3,156,,,,,,,,,,,,,,,n,1,0.6860659039812163,,,115,001,2019_Mar_18_1253,test_run,3.0.6,59.99583676010359,
11,ETW,ETW_11_period_070319.wav,j,t,,,,,0,4,4,10,,,,,,,,,,,,,,,j,1,0.9862209169950802,,,115,001,2019_Mar_18_1253,test_run,3.0.6,59.99583676010359,
172,ENW,ENW_82_värskappa_150219.wav,n,t,,,,,0,5,5,171,,,,,,,,,,,,,,,n,1,0.9529266839963384,,,115,001,2019_Mar_18_1253,test_run,3.0.6,59.99583676010359,
179,ENW,ENW_89_mikenspoan_150219.wav,n,t,,,,,0,6,6,178,,,,,,,,,,,,,,,n,1,0.5693607179855462,,,115,001,2019_Mar_18_1253,test_run,3.0.6,59.99583676010359,
80,EFW,EFW_50_snaalla_070319.wav,j,t,,,,,0,7,7,79,,,,,,,,,,,,,,,j,1,0.36946005999925546,,,115,001,2019_Mar_18_1253,test_run,3.0.6,59.99583676010359,
29,ETW,ETW_29_oeverhuvud_070319.wav,j,t,,,,,0,8,8,28,,,,,,,,,,,,,,,j,1,0.46949857301660813,,,115,001,2019_Mar_18_1253,test_run,3.0.6,59.99583676010359,
136,ENW,ENW_46_pommera_150219.wav,n,t,,,,,0,9,9,135,,,,,,,,,,,,,,,n,1,0.6525000550027471,,,115,001,2019_Mar_18_1253,test_run,3.0.6,59.99583676010359,
93,ENW,ENW_3_vissorens_150219.wav,n,t,,,,,0,10,10,92,,,,,,,,,,,,,,,n,1,1.2021237879816908,,,115,001,2019_Mar_18_1253,test_run,3.0.6,59.99583676010359,
68,EFW,EFW_38_foerefoell_070319.wav,j,t,,,,,0,11,11,67,,,,,,,,,,,,,,,j,1,0.4024127820157446,,,115,001,2019_Mar_18_1253,test_run,3.0.6,59.99583676010359,
124,ENW,ENW_34_jomera_150219.wav,n,t,,,,,0,12,12,123,,,,,,,,,,,,,,,j,0,0.4694397470157128,,,115,001,2019_Mar_18_1253,test_run,3.0.6,59.99583676010359,
108,ENW,ENW_18_moalursena_150219.wav,n,t,,,,,0,13,13,107,,,,,,,,,,,,,,,n,1,0.5529154099931475,,,115,001,2019_Mar_18_1253,test_run,3.0.6,59.99583676010359,
106,ENW,ENW_16_rolinkar_150219.wav,n,t,,,,,0,14,14,105,,,,,,,,,,,,,,,n,1,2.2504434139991645,,,115,001,2019_Mar_18_1253,test_run,3.0.6,59.99583676010359,
62,EFW,EFW_32_fyller_070319.wav,j,t,,,,,0,15,15,61,,,,,,,,,,,,,,,j,1,1.2857238490250893,,,115,001,2019_Mar_18_1253,test_run,3.0.6,59.99583676010359,
57,EFW,EFW_27_analysera_070319.wav,j,t,,,,,0,16,16,56,,,,,,,,,,,,,,,j,1,0.43623818500782363,,,115,001,2019_Mar_18_1253,test_run,3.0.6,59.99583676010359,
49,EFW,EFW_19_roerelse_070319.wav,j,t,,,,,0,17,17,48,,,,,,,,,,,,,,,j,1,0.33567068600677885,,,115,001,2019_Mar_18_1253,test_run,3.0.6,59.99583676010359,
110,ENW,ENW_20_invonen_150219.wav,n,t,,,,,0,18,18,109,,,,,,,,,,,,,,,n,1,0.3691676699963864,,,115,001,2019_Mar_18_1253,test_run,3.0.6,59.99583676010359,
5,ETW,ETW_5_skepnad_070319.wav,j,t,,,,,0,19,19,4,,,,,,,,,,,,,,,j,1,0.3857048449863214,,,115,001,2019_Mar_18_1253,test_run,3.0.6,59.99583676010359,
72,EFW,EFW_42_naavaron_070319.wav,j,t,,,,,0,20,20,71,,,,,,,,,,,,,,,j,1,0.46904373000143096,,,115,001,2019_Mar_18_1253,test_run,3.0.6,59.99583676010359,
115,ENW,ENW_25_affierar_150219.wav,n,t,,,,,0,21,21,114,,,,,,,,,,,,,,,n,1,0.6358079240017105,,,115,001,2019_Mar_18_1253,test_run,3.0.6,59.99583676010359,
40,EFW,EFW_10_laarare_070319.wav,j,t,,,,,0,22,22,39,,,,,,,,,,,,,,,j,1,0.5505276389885694,,,115,001,2019_Mar_18_1253,test_run,3.0.6,59.99583676010359,
100,ENW,ENW_10_skinnamer_150219.wav,n,t,,,,,0,23,23,99,,,,,,,,,,,,,,,n,1,1.1027739939745516,,,115,001,2019_Mar_18_1253,test_run,3.0.6,59.99583676010359,
98,ENW,ENW_8_haväras_150219.wav,n,t,,,,,0,24,24,97,,,,,,,,,,,,,,,n,1,0.6024229399918113,,,115,001,2019_Mar_18_1253,test_run,3.0.6,59.99583676010359,
103,ENW,ENW_13_forvaron_150219.wav,n,t,,,,,0,25,25,102,,,,,,,,,,,,,,,n,1,1.268811908987118,,,115,001,2019_Mar_18_1253,test_run,3.0.6,59.99583676010359,
126,ENW,ENW_36_skymlosa_150219.wav,n,t,,,,,0,26,26,125,,,,,,,,,,,,,,,n,1,0.6521606119931675,,,115,001,2019_Mar_18_1253,test_run,3.0.6,59.99583676010359,
92,ENW,ENW_2_overralka_150219.wav,n,t,,,,,0,27,27,91,,,,,,,,,,,,,,,n,1,0.5195218820008449,,,115,001,2019_Mar_18_1253,test_run,3.0.6,59.99583676010359,
130,ENW,ENW_40_knipackar_150219.wav,n,t,,,,,0,28,28,129,,,,,,,,,,,,,,,n,1,0.535941868001828,,,115,001,2019_Mar_18_1253,test_run,3.0.6,59.99583676010359,
85,EFW,EFW_55_oroar_070319.wav,j,t,,,,,0,29,29,84,,,,,,,,,,,,,,,j,1,0.48613914698944427,,,115,001,2019_Mar_18_1253,test_run,3.0.6,59.99583676010359,
104,ENW,ENW_14_kärmenor_150219.wav,n,t,,,,,0,30,30,103,,,,,,,,,,,,,,,n,1,1.2529695889970753,,,115,001,2019_Mar_18_1253,test_run,3.0.6,59.99583676010359,
88,EFW,EFW_58_examen_070319.wav,j,t,,,,,0,31,31,87,,,,,,,,,,,,,,,j,1,0.7189399740018416,,,115,001,2019_Mar_18_1253,test_run,3.0.6,59.99583676010359,
165,ENW,ENW_75_foarskining_150219.wav,n,t,,,,,0,32,32,164,,,,,,,,,,,,,,,n,1,0.7336053469916806,,,115,001,2019_Mar_18_1253,test_run,3.0.6,59.99583676010359,
42,EFW,EFW_12_foeremoal_070319.wav,j,t,,,,,0,33,33,41,,,,,,,,,,,,,,,j,1,0.3859874000190757,,,115,001,2019_Mar_18_1253,test_run,3.0.6,59.99583676010359,
6,ETW,ETW_6_vemod_070319.wav,j,t,,,,,0,34,34,5,,,,,,,,,,,,,,,j,1,0.5029426960099954,,,115,001,2019_Mar_18_1253,test_run,3.0.6,59.99583676010359,
2,ETW,ETW_2_skillnad_070319.wav,j,t,,,,,0,35,35,1,,,,,,,,,,,,,,,j,1,0.5861835250107106,,,115,001,2019_Mar_18_1253,test_run,3.0.6,59.99583676010359,
10,ETW,ETW_10_nomad_070319.wav,j,t,,,,,0,36,36,9,,,,,,,,,,,,,,,j,1,0.518910323997261,,,115,001,2019_Mar_18_1253,test_run,3.0.6,59.99583676010359,
99,ENW,ENW_9_samlemor_150219.wav,n,t,,,,,0,37,37,98,,,,,,,,,,,,,,,n,1,0.4519994440197479,,,115,001,2019_Mar_18_1253,test_run,3.0.6,59.99583676010359,
116,ENW,ENW_26_anufera_150219.wav,n,t,,,,,0,38,38,115,,,,,,,,,,,,,,,n,1,0.7687840849976055,,,115,001,2019_Mar_18_1253,test_run,3.0.6,59.99583676010359,
39,EFW,EFW_9_infektion_070319.wav,j,t,,,,,0,39,39,38,,,,,,,,,,,,,,,j,1,0.5362643039843533,,,115,001,2019_Mar_18_1253,test_run,3.0.6,59.99583676010359,
151,ENW,ENW_61_myckskina_150219.wav,n,t,,,,,0,40,40,150,,,,,,,,,,,,,,,n,1,0.5507482240209356,,,115,001,2019_Mar_18_1253,test_run,3.0.6,59.99583676010359,
69,EFW,EFW_39_foersvara_070319.wav,j,t,,,,,0,41,41,68,,,,,,,,,,,,,,,j,1,0.7355047290038783,,,115,001,2019_Mar_18_1253,test_run,3.0.6,59.99583676010359,
71,EFW,EFW_41_infinna_070319.wav,j,t,,,,,0,42,42,70,,,,,,,,,,,,,,,j,1,1.5193105379876215,,,115,001,2019_Mar_18_1253,test_run,3.0.6,59.99583676010359,
64,EFW,EFW_34_sommar_070319.wav,j,t,,,,,0,43,43,63,,,,,,,,,,,,,,,j,1,0.5027140759921167,,,115,001,2019_Mar_18_1253,test_run,3.0.6,59.99583676010359,
36,EFW,EFW_6_massa_070319.wav,j,t,,,,,0,44,44,35,,,,,,,,,,,,,,,j,1,0.3525575280073099,,,115,001,2019_Mar_18_1253,test_run,3.0.6,59.99583676010359,
23,ETW,ETW_23_promenad_070319.wav,j,t,,,,,0,45,45,22,,,,,,,,,,,,,,,j,1,0.40254664001986384,,,115,001,2019_Mar_18_1253,test_run,3.0.6,59.99583676010359,
74,EFW,EFW_44_ljusa_070319.wav,j,t,,,,,0,46,46,73,,,,,,,,,,,,,,,j,1,0.619894583011046,,,115,001,2019_Mar_18_1253,test_run,3.0.6,59.99583676010359,
148,ENW,ENW_58_malvossa_150219.wav,n,t,,,,,0,47,47,147,,,,,,,,,,,,,,,n,1,0.38389733000076376,,,115,001,2019_Mar_18_1253,test_run,3.0.6,59.99583676010359,
152,ENW,ENW_62_ljullepilja_150219.wav,n,t,,,,,0,48,48,151,,,,,,,,,,,,,,,n,1,0.5020630980143324,,,115,001,2019_Mar_18_1253,test_run,3.0.6,59.99583676010359,
44,EFW,EFW_14_foersoeken_070319.wav,j,t,,,,,0,49,49,43,,,,,,,,,,,,,,,j,1,0.45055585098452866,,,115,001,2019_Mar_18_1253,test_run,3.0.6,59.99583676010359,
174,ENW,ENW_84_hurmarna_150219.wav,n,t,,,,,0,50,50,173,,,,,,,,,,,,,,,n,1,0.4350592140108347,,,115,001,2019_Mar_18_1253,test_run,3.0.6,59.99583676010359,
97,ENW,ENW_7_flasera_150219.wav,n,t,,,,,0,51,51,96,,,,,,,,,,,,,,,n,1,0.4357775960233994,,,115,001,2019_Mar_18_1253,test_run,3.0.6,59.99583676010359,
113,ENW,ENW_23_allsänning_150219.wav,n,t,,,,,0,52,52,112,,,,,,,,,,,,,,,n,1,0.5190380749991164,,,115,001,2019_Mar_18_1253,test_run,3.0.6,59.99583676010359,
30,ETW,ETW_30_oeverlevnad_070319.wav,j,t,,,,,0,53,53,29,,,,,,,,,,,,,,,j,1,0.46888896301970817,,,115,001,2019_Mar_18_1253,test_run,3.0.6,59.99583676010359,
169,ENW,ENW_79_lyxmare_150219.wav,n,t,,,,,0,54,54,168,,,,,,,,,,,,,,,n,1,0.8522867040010169,,,115,001,2019_Mar_18_1253,test_run,3.0.6,59.99583676010359,
65,EFW,EFW_35_affaarer_070319.wav,j,t,,,,,0,55,55,64,,,,,,,,,,,,,,,j,1,0.6503635509870946,,,115,001,2019_Mar_18_1253,test_run,3.0.6,59.99583676010359,
109,ENW,ENW_19_morloren_150219.wav,n,t,,,,,0,56,56,108,,,,,,,,,,,,,,,n,1,0.43575009499909356,,,115,001,2019_Mar_18_1253,test_run,3.0.6,59.99583676010359,
33,EFW,EFW_3_familjen_070319.wav,j,t,,,,,0,57,57,32,,,,,,,,,,,,,,,j,1,0.5355152739793994,,,115,001,2019_Mar_18_1253,test_run,3.0.6,59.99583676010359,
58,EFW,EFW_28_olja_070319.wav,j,t,,,,,0,58,58,57,,,,,,,,,,,,,,,j,1,0.4354618390207179,,,115,001,2019_Mar_18_1253,test_run,3.0.6,59.99583676010359,
141,ENW,ENW_51_skillare_150219.wav,n,t,,,,,0,59,59,140,,,,,,,,,,,,,,,n,1,0.8022739739972167,,,115,001,2019_Mar_18_1253,test_run,3.0.6,59.99583676010359,
17,ETW,ETW_17_hemmavid_070319.wav,j,t,,,,,0,60,60,16,,,,,,,,,,,,,,,j,1,0.4671482220001053,,,115,001,2019_Mar_18_1253,test_run,3.0.6,59.99583676010359,
13,ETW,ETW_13_oevervoald_070319.wav,j,t,,,,,0,61,61,12,,,,,,,,,,,,,,,j,1,0.5362395829870366,,,115,001,2019_Mar_18_1253,test_run,3.0.6,59.99583676010359,
154,ENW,ENW_64_havskvare_150219.wav,n,t,,,,,0,62,62,153,,,,,,,,,,,,,,,n,1,0.7337618970195763,,,115,001,2019_Mar_18_1253,test_run,3.0.6,59.99583676010359,
34,EFW,EFW_4_foerminska_070319.wav,j,t,,,,,0,63,63,33,,,,,,,,,,,,,,,j,1,0.5004099420038983,,,115,001,2019_Mar_18_1253,test_run,3.0.6,59.99583676010359,
51,EFW,EFW_21_varierar_070319.wav,j,t,,,,,0,64,64,50,,,,,,,,,,,,,,,j,1,0.4529457720054779,,,115,001,2019_Mar_18_1253,test_run,3.0.6,59.99583676010359,
90,EFW,EFW_60_insulin_070319.wav,j,t,,,,,0,65,65,89,,,,,,,,,,,,,,,j,1,0.6687767769908533,,,115,001,2019_Mar_18_1253,test_run,3.0.6,59.99583676010359,
122,ENW,ENW_32_fonering_150219.wav,n,t,,,,,0,66,66,121,,,,,,,,,,,,,,,n,1,1.2522396050044335,,,115,001,2019_Mar_18_1253,test_run,3.0.6,59.99583676010359,
38,EFW,EFW_8_samman_070319.wav,j,t,,,,,0,67,67,37,,,,,,,,,,,,,,,j,1,0.5524537989986129,,,115,001,2019_Mar_18_1253,test_run,3.0.6,59.99583676010359,
75,EFW,EFW_45_innanfoer_070319.wav,j,t,,,,,0,68,68,74,,,,,,,,,,,,,,,j,1,0.6692004959913902,,,115,001,2019_Mar_18_1253,test_run,3.0.6,59.99583676010359,
16,ETW,ETW_16_episod_070319.wav,j,t,,,,,0,69,69,15,,,,,,,,,,,,,,,j,1,0.6523621859960258,,,115,001,2019_Mar_18_1253,test_run,3.0.6,59.99583676010359,
123,ENW,ENW_33_froamation_150219.wav,n,t,,,,,0,70,70,122,,,,,,,,,,,,,,,n,1,1.6187968870217446,,,115,001,2019_Mar_18_1253,test_run,3.0.6,59.99583676010359,
95,ENW,ENW_5_spoamisk_150219.wav,n,t,,,,,0,71,71,94,,,,,,,,,,,,,,,n,1,0.8355175989854615,,,115,001,2019_Mar_18_1253,test_run,3.0.6,59.99583676010359,
84,EFW,EFW_54_romaner_070319.wav,j,t,,,,,0,72,72,83,,,,,,,,,,,,,,,j,1,0.7361295839946251,,,115,001,2019_Mar_18_1253,test_run,3.0.6,59.99583676010359,
178,ENW,ENW_88_marsifen_150219.wav,n,t,,,,,0,73,73,177,,,,,,,,,,,,,,,n,1,0.5863066789752338,,,115,001,2019_Mar_18_1253,test_run,3.0.6,59.99583676010359,
53,EFW,EFW_23_aamne_070319.wav,j,t,,,,,0,74,74,52,,,,,,,,,,,,,,,j,1,0.6027124770043883,,,115,001,2019_Mar_18_1253,test_run,3.0.6,59.99583676010359,
21,ETW,ETW_21_marmelad_070319.wav,j,t,,,,,0,75,75,20,,,,,,,,,,,,,,,j,1,0.6522023619909305,,,115,001,2019_Mar_18_1253,test_run,3.0.6,59.99583676010359,
3,ETW,ETW_3_choklad_070319.wav,j,t,,,,,0,76,76,2,,,,,,,,,,,,,,,j,1,0.43620574101805687,,,115,001,2019_Mar_18_1253,test_run,3.0.6,59.99583676010359,
20,ETW,ETW_20_loppmarknad_070319.wav,j,t,,,,,0,77,77,19,,,,,,,,,,,,,,,j,1,0.45262013899628073,,,115,001,2019_Mar_18_1253,test_run,3.0.6,59.99583676010359,
81,EFW,EFW_51_seminarier_070319.wav,j,t,,,,,0,78,78,80,,,,,,,,,,,,,,,j,1,0.35268376700696535,,,115,001,2019_Mar_18_1253,test_run,3.0.6,59.99583676010359,
37,EFW,EFW_7_sociala_070319.wav,j,t,,,,,0,79,79,36,,,,,,,,,,,,,,,j,1,0.5189599469886161,,,115,001,2019_Mar_18_1253,test_run,3.0.6,59.99583676010359,
138,ENW,ENW_48_skyjamsen_150219.wav,n,t,,,,,0,80,80,137,,,,,,,,,,,,,,,n,1,0.13368597999215126,,,115,001,2019_Mar_18_1253,test_run,3.0.6,59.99583676010359,
134,ENW,ENW_44_inlivna_150219.wav,n,t,,,,,0,81,81,133,,,,,,,,,,,,,,,n,1,0.6352467160031665,,,115,001,2019_Mar_18_1253,test_run,3.0.6,59.99583676010359,
7,ETW,ETW_7_hemland_070319.wav,j,t,,,,,0,82,82,6,,,,,,,,,,,,,,,j,1,0.45280026699765585,,,115,001,2019_Mar_18_1253,test_run,3.0.6,59.99583676010359,
170,ENW,ENW_80_tjarfera_150219.wav,n,t,,,,,0,83,83,169,,,,,,,,,,,,,,,n,1,0.4693424419965595,,,115,001,2019_Mar_18_1253,test_run,3.0.6,59.99583676010359,
32,EFW,EFW_2_snarare_070319.wav,j,t,,,,,0,84,84,31,,,,,,,,,,,,,,,j,1,0.3688407480076421,,,115,001,2019_Mar_18_1253,test_run,3.0.6,59.99583676010359,
63,EFW,EFW_33_elva_070319.wav,j,t,,,,,0,85,85,62,,,,,,,,,,,,,,,j,1,0.41699932201299816,,,115,001,2019_Mar_18_1253,test_run,3.0.6,59.99583676010359,
131,ENW,ENW_41_vessmaren_150219.wav,n,t,,,,,0,86,86,130,,,,,,,,,,,,,,,n,1,0.4357565210084431,,,115,001,2019_Mar_18_1253,test_run,3.0.6,59.99583676010359,
121,ENW,ENW_31_romation_150219.wav,n,t,,,,,0,87,87,120,,,,,,,,,,,,,,,n,1,0.4021624820015859,,,115,001,2019_Mar_18_1253,test_run,3.0.6,59.99583676010359,
59,EFW,EFW_29_formen_070319.wav,j,t,,,,,0,88,88,58,,,,,,,,,,,,,,,j,1,0.4192049209959805,,,115,001,2019_Mar_18_1253,test_run,3.0.6,59.99583676010359,
25,ETW,ETW_25_mikrosekund_070319.wav,j,t,,,,,0,89,89,24,,,,,,,,,,,,,,,j,1,0.4862298639782239,,,115,001,2019_Mar_18_1253,test_run,3.0.6,59.99583676010359,
159,ENW,ENW_69_mjohusa_150219.wav,n,t,,,,,0,90,90,158,,,,,,,,,,,,,,,n,1,0.7031435389944818,,,115,001,2019_Mar_18_1253,test_run,3.0.6,59.99583676010359,
26,ETW,ETW_26_olympiad_070319.wav,j,t,,,,,0,91,91,25,,,,,,,,,,,,,,,j,1,0.5691264540073462,,,115,001,2019_Mar_18_1253,test_run,3.0.6,59.99583676010359,
15,ETW,ETW_15_knivsudd_070319.wav,j,t,,,,,0,92,92,14,,,,,,,,,,,,,,,j,1,1.5525455629976932,,,115,001,2019_Mar_18_1253,test_run,3.0.6,59.99583676010359,
79,EFW,EFW_49_vaasen_070319.wav,j,t,,,,,0,93,93,78,,,,,,,,,,,,,,,j,1,0.45240867498796433,,,115,001,2019_Mar_18_1253,test_run,3.0.6,59.99583676010359,
102,ENW,ENW_12_snälmola_150219.wav,n,t,,,,,0,94,94,101,,,,,,,,,,,,,,,n,1,0.7194461690087337,,,115,001,2019_Mar_18_1253,test_run,3.0.6,59.99583676010359,
73,EFW,EFW_43_halvoar_070319.wav,j,t,,,,,0,95,95,72,,,,,,,,,,,,,,,j,1,0.25261100399075076,,,115,001,2019_Mar_18_1253,test_run,3.0.6,59.99583676010359,
177,ENW,ENW_87_kloavare_150219.wav,n,t,,,,,0,96,96,176,,,,,,,,,,,,,,,n,1,1.4028124290052801,,,115,001,2019_Mar_18_1253,test_run,3.0.6,59.99583676010359,
14,ETW,ETW_14_myriad_070319.wav,j,t,,,,,0,97,97,13,,,,,,,,,,,,,,,j,1,0.4862381139828358,,,115,001,2019_Mar_18_1253,test_run,3.0.6,59.99583676010359,
135,ENW,ENW_45_fammoarens_150219.wav,n,t,,,,,0,98,98,134,,,,,,,,,,,,,,,n,1,0.5857482949795667,,,115,001,2019_Mar_18_1253,test_run,3.0.6,59.99583676010359,
145,ENW,ENW_55_invaskin_150219.wav,n,t,,,,,0,99,99,144,,,,,,,,,,,,,,,n,1,1.485544975992525,,,115,001,2019_Mar_18_1253,test_run,3.0.6,59.99583676010359,
82,EFW,EFW_52_framhoalla_070319.wav,j,t,,,,,0,100,100,81,,,,,,,,,,,,,,,j,1,0.9006479069939815,,,115,001,2019_Mar_18_1253,test_run,3.0.6,59.99583676010359,
52,EFW,EFW_22_normala_070319.wav,j,t,,,,,0,101,101,51,,,,,,,,,,,,,,,j,1,0.6028302650083788,,,115,001,2019_Mar_18_1253,test_run,3.0.6,59.99583676010359,
70,EFW,EFW_40_miljoner_070319.wav,j,t,,,,,0,102,102,69,,,,,,,,,,,,,,,j,1,0.46919386900844984,,,115,001,2019_Mar_18_1253,test_run,3.0.6,59.99583676010359,
146,ENW,ENW_56_lysskarna_150219.wav,n,t,,,,,0,103,103,145,,,,,,,,,,,,,,,n,1,1.4699185950157698,,,115,001,2019_Mar_18_1253,test_run,3.0.6,59.99583676010359,
8,ETW,ETW_8_samfund_070319.wav,j,t,,,,,0,104,104,7,,,,,,,,,,,,,,,j,1,0.5353670839976985,,,115,001,2019_Mar_18_1253,test_run,3.0.6,59.99583676010359,
24,ETW,ETW_24_oeverfloed_070319.wav,j,t,,,,,0,105,105,23,,,,,,,,,,,,,,,j,1,0.45300381700508296,,,115,001,2019_Mar_18_1253,test_run,3.0.6,59.99583676010359,
166,ENW,ENW_76_omfläskor_150219.wav,n,t,,,,,0,106,106,165,,,,,,,,,,,,,,,n,1,0.5191326359927189,,,115,001,2019_Mar_18_1253,test_run,3.0.6,59.99583676010359,
160,ENW,ENW_70_roklarner_150219.wav,n,t,,,,,0,107,107,159,,,,,,,,,,,,,,,n,1,0.40210502900299616,,,115,001,2019_Mar_18_1253,test_run,3.0.6,59.99583676010359,
67,EFW,EFW_37_foervisso_070319.wav,j,t,,,,,0,108,108,66,,,,,,,,,,,,,,,j,1,0.38629623598535545,,,115,001,2019_Mar_18_1253,test_run,3.0.6,59.99583676010359,
137,ENW,ENW_47_oafläppen_150219.wav,n,t,,,,,0,109,109,136,,,,,,,,,,,,,,,n,1,0.552615713007981,,,115,001,2019_Mar_18_1253,test_run,3.0.6,59.99583676010359,
164,ENW,ENW_74_malsera_150219.wav,n,t,,,,,0,110,110,163,,,,,,,,,,,,,,,n,1,0.8020789139845874,,,115,001,2019_Mar_18_1253,test_run,3.0.6,59.99583676010359,
111,ENW,ENW_21_tjulning_150219.wav,n,t,,,,,0,111,111,110,,,,,,,,,,,,,,,j,0,1.7354023320076521,,,115,001,2019_Mar_18_1253,test_run,3.0.6,59.99583676010359,
77,EFW,EFW_47_invoanare_070319.wav,j,t,,,,,0,112,112,76,,,,,,,,,,,,,,,j,1,0.6852077300136443,,,115,001,2019_Mar_18_1253,test_run,3.0.6,59.99583676010359,
31,EFW,EFW_1_allmaan_070319.wav,j,t,,,,,0,113,113,30,,,,,,,,,,,,,,,j,1,0.38545068399980664,,,115,001,2019_Mar_18_1253,test_run,3.0.6,59.99583676010359,
173,ENW,ENW_83_fyrskovar_150219.wav,n,t,,,,,0,114,114,172,,,,,,,,,,,,,,,n,1,0.7355679070169572,,,115,001,2019_Mar_18_1253,test_run,3.0.6,59.99583676010359,
105,ENW,ENW_15_forfeckla_150219.wav,n,t,,,,,0,115,115,104,,,,,,,,,,,,,,,n,1,0.7023062939988449,,,115,001,2019_Mar_18_1253,test_run,3.0.6,59.99583676010359,
171,ENW,ENW_81_persifera_150219.wav,n,t,,,,,0,116,116,170,,,,,,,,,,,,,,,n,1,1.2691013879957609,,,115,001,2019_Mar_18_1253,test_run,3.0.6,59.99583676010359,
47,EFW,EFW_17_januari_070319.wav,j,t,,,,,0,117,117,46,,,,,,,,,,,,,,,j,1,0.4361642489966471,,,115,001,2019_Mar_18_1253,test_run,3.0.6,59.99583676010359,
28,ETW,ETW_28_kommunalroad_070319.wav,j,t,,,,,0,118,118,27,,,,,,,,,,,,,,,j,1,0.43547253299038857,,,115,001,2019_Mar_18_1253,test_run,3.0.6,59.99583676010359,
117,ENW,ENW_27_lyssvinner_150219.wav,n,t,,,,,0,119,119,116,,,,,,,,,,,,,,,n,1,0.5521181040094234,,,115,001,2019_Mar_18_1253,test_run,3.0.6,59.99583676010359,
118,ENW,ENW_28_läkermask_150219.wav,n,t,,,,,0,120,120,117,,,,,,,,,,,,,,,n,1,0.8857725519919768,,,115,001,2019_Mar_18_1253,test_run,3.0.6,59.99583676010359,
155,ENW,ENW_65_hamfylla_150219.wav,n,t,,,,,0,121,121,154,,,,,,,,,,,,,,,n,1,1.0526073449873365,,,115,001,2019_Mar_18_1253,test_run,3.0.6,59.99583676010359,
78,EFW,EFW_48_varifroan_070319.wav,j,t,,,,,0,122,122,77,,,,,,,,,,,,,,,j,1,0.6031006639823318,,,115,001,2019_Mar_18_1253,test_run,3.0.6,59.99583676010359,
43,EFW,EFW_13_elever_070319.wav,j,t,,,,,0,123,123,42,,,,,,,,,,,,,,,j,1,0.6197578610153869,,,115,001,2019_Mar_18_1253,test_run,3.0.6,59.99583676010359,
139,ENW,ENW_49_hälskrena_150219.wav,n,t,,,,,0,124,124,138,,,,,,,,,,,,,,,n,1,0.8688934670062736,,,115,001,2019_Mar_18_1253,test_run,3.0.6,59.99583676010359,
76,EFW,EFW_46_foerhoer_070319.wav,j,t,,,,,0,125,125,75,,,,,,,,,,,,,,,j,1,0.5356881420011632,,,115,001,2019_Mar_18_1253,test_run,3.0.6,59.99583676010359,
4,ETW,ETW_4_livraadd_070319.wav,j,t,,,,,0,126,126,3,,,,,,,,,,,,,,,j,1,0.45254826798918657,,,115,001,2019_Mar_18_1253,test_run,3.0.6,59.99583676010359,
35,EFW,EFW_5_samhaalle_070319.wav,j,t,,,,,0,127,127,34,,,,,,,,,,,,,,,j,1,0.35215349998907186,,,115,001,2019_Mar_18_1253,test_run,3.0.6,59.99583676010359,
56,EFW,EFW_26_armarna_070319.wav,j,t,,,,,0,128,128,55,,,,,,,,,,,,,,,j,1,0.369298446981702,,,115,001,2019_Mar_18_1253,test_run,3.0.6,59.99583676010359,
120,ENW,ENW_30_sojera_150219.wav,n,t,,,,,0,129,129,119,,,,,,,,,,,,,,,n,1,0.6521393369766884,,,115,001,2019_Mar_18_1253,test_run,3.0.6,59.99583676010359,
153,ENW,ENW_63_femyrisk_150219.wav,n,t,,,,,0,130,130,152,,,,,,,,,,,,,,,n,1,0.7338951290003024,,,115,001,2019_Mar_18_1253,test_run,3.0.6,59.99583676010359,
86,EFW,EFW_56_mormor_070319.wav,j,t,,,,,0,131,131,85,,,,,,,,,,,,,,,j,1,0.3358066540095024,,,115,001,2019_Mar_18_1253,test_run,3.0.6,59.99583676010359,
119,ENW,ENW_29_uppskira_150219.wav,n,t,,,,,0,132,132,118,,,,,,,,,,,,,,,n,1,0.10250006199930795,,,115,001,2019_Mar_18_1253,test_run,3.0.6,59.99583676010359,
162,ENW,ENW_72_urskecken_150219.wav,n,t,,,,,0,133,133,161,,,,,,,,,,,,,,,n,1,0.4503136250132229,,,115,001,2019_Mar_18_1253,test_run,3.0.6,59.99583676010359,
91,ENW,ENW_1_norsimerar_150219.wav,n,t,,,,,0,134,134,90,,,,,,,,,,,,,,,n,1,0.4523016939929221,,,115,001,2019_Mar_18_1253,test_run,3.0.6,59.99583676010359,
61,EFW,EFW_31_jaamfoera_070319.wav,j,t,,,,,0,135,135,60,,,,,,,,,,,,,,,j,1,0.4027484830003232,,,115,001,2019_Mar_18_1253,test_run,3.0.6,59.99583676010359,
158,ENW,ENW_68_presionar_150219.wav,n,t,,,,,0,136,136,157,,,,,,,,,,,,,,,n,1,0.8185100519913249,,,115,001,2019_Mar_18_1253,test_run,3.0.6,59.99583676010359,
45,EFW,EFW_15_oeverens_070319.wav,j,t,,,,,0,137,137,44,,,,,,,,,,,,,,,j,1,0.3835919039847795,,,115,001,2019_Mar_18_1253,test_run,3.0.6,59.99583676010359,
175,ENW,ENW_85_forlinna_150219.wav,n,t,,,,,0,138,138,174,,,,,,,,,,,,,,,n,1,0.583825227979105,,,115,001,2019_Mar_18_1253,test_run,3.0.6,59.99583676010359,
22,ETW,ETW_22_sinnesfrid_070319.wav,j,t,,,,,0,139,139,21,,,,,,,,,,,,,,,j,1,0.8196603140095249,,,115,001,2019_Mar_18_1253,test_run,3.0.6,59.99583676010359,
128,ENW,ENW_38_roakanier_150219.wav,n,t,,,,,0,140,140,127,,,,,,,,,,,,,,,n,1,1.4193083599966485,,,115,001,2019_Mar_18_1253,test_run,3.0.6,59.99583676010359,
168,ENW,ENW_78_morvinder_150219.wav,n,t,,,,,0,141,141,167,,,,,,,,,,,,,,,n,1,0.752185532997828,,,115,001,2019_Mar_18_1253,test_run,3.0.6,59.99583676010359,
46,EFW,EFW_16_lyssna_070319.wav,j,t,,,,,0,142,142,45,,,,,,,,,,,,,,,j,1,0.3692081320041325,,,115,001,2019_Mar_18_1253,test_run,3.0.6,59.99583676010359,
89,EFW,EFW_59_filosofin_070319.wav,j,t,,,,,0,143,143,88,,,,,,,,,,,,,,,j,1,0.5854611399990972,,,115,001,2019_Mar_18_1253,test_run,3.0.6,59.99583676010359,
60,EFW,EFW_30_officiella_070319.wav,j,t,,,,,0,144,144,59,,,,,,,,,,,,,,,j,1,0.6356487539887894,,,115,001,2019_Mar_18_1253,test_run,3.0.6,59.99583676010359,
54,EFW,EFW_24_foersvinner_070319.wav,j,t,,,,,0,145,145,53,,,,,,,,,,,,,,,j,1,0.40259404000244103,,,115,001,2019_Mar_18_1253,test_run,3.0.6,59.99583676010359,
156,ENW,ENW_66_voarsmenar_150219.wav,n,t,,,,,0,146,146,155,,,,,,,,,,,,,,,n,1,0.6024173359910492,,,115,001,2019_Mar_18_1253,test_run,3.0.6,59.99583676010359,
125,ENW,ENW_35_nymaljen_150219.wav,n,t,,,,,0,147,147,124,,,,,,,,,,,,,,,n,1,0.5525824629876297,,,115,001,2019_Mar_18_1253,test_run,3.0.6,59.99583676010359,
50,EFW,EFW_20_fenomen_070319.wav,j,t,,,,,0,148,148,49,,,,,,,,,,,,,,,j,1,0.6696284770150669,,,115,001,2019_Mar_18_1253,test_run,3.0.6,59.99583676010359,
107,ENW,ENW_17_kopynnor_150219.wav,n,t,,,,,0,149,149,106,,,,,,,,,,,,,,,n,1,0.035657931002788246,,,115,001,2019_Mar_18_1253,test_run,3.0.6,59.99583676010359,
163,ENW,ENW_73_vimmankalla_150219.wav,n,t,,,,,0,150,150,162,,,,,,,,,,,,,,,n,1,0.5020730090036523,,,115,001,2019_Mar_18_1253,test_run,3.0.6,59.99583676010359,
133,ENW,ENW_43_axalän_150219.wav,n,t,,,,,0,151,151,132,,,,,,,,,,,,,,,n,1,0.8338932929909788,,,115,001,2019_Mar_18_1253,test_run,3.0.6,59.99583676010359,
142,ENW,ENW_52_filofyll_150219.wav,n,t,,,,,0,152,152,141,,,,,,,,,,,,,,,n,1,0.7523012479941826,,,115,001,2019_Mar_18_1253,test_run,3.0.6,59.99583676010359,
27,ETW,ETW_27_medellivslaangd_070319.wav,j,t,,,,,0,153,153,26,,,,,,,,,,,,,,,j,1,0.9359335360059049,,,115,001,2019_Mar_18_1253,test_run,3.0.6,59.99583676010359,
9,ETW,ETW_9_haarmed_070319.wav,j,t,,,,,0,154,154,8,,,,,,,,,,,,,,,j,1,0.5193166979879607,,,115,001,2019_Mar_18_1253,test_run,3.0.6,59.99583676010359,
101,ENW,ENW_11_fränna_150219.wav,n,t,,,,,0,155,155,100,,,,,,,,,,,,,,,n,1,0.683855264011072,,,115,001,2019_Mar_18_1253,test_run,3.0.6,59.99583676010359,
127,ENW,ENW_37_spallrivet_150219.wav,n,t,,,,,0,156,156,126,,,,,,,,,,,,,,,n,1,0.43546366499504074,,,115,001,2019_Mar_18_1253,test_run,3.0.6,59.99583676010359,
129,ENW,ENW_39_ljusonar_150219.wav,n,t,,,,,0,157,157,128,,,,,,,,,,,,,,,n,1,0.5359879970201291,,,115,001,2019_Mar_18_1253,test_run,3.0.6,59.99583676010359,
167,ENW,ENW_77_somfera_150219.wav,n,t,,,,,0,158,158,166,,,,,,,,,,,,,,,n,1,0.35230103199137375,,,115,001,2019_Mar_18_1253,test_run,3.0.6,59.99583676010359,
176,ENW,ENW_86_heloppsin_150219.wav,n,t,,,,,0,159,159,175,,,,,,,,,,,,,,,n,1,0.43589775200234726,,,115,001,2019_Mar_18_1253,test_run,3.0.6,59.99583676010359,
112,ENW,ENW_22_fjäserna_150219.wav,n,t,,,,,0,160,160,111,,,,,,,,,,,,,,,n,1,0.5023644180037081,,,115,001,2019_Mar_18_1253,test_run,3.0.6,59.99583676010359,
132,ENW,ENW_42_hamsforing_150219.wav,n,t,,,,,0,161,161,131,,,,,,,,,,,,,,,n,1,0.718867207004223,,,115,001,2019_Mar_18_1253,test_run,3.0.6,59.99583676010359,
140,ENW,ENW_50_omsänare_150219.wav,n,t,,,,,0,162,162,139,,,,,,,,,,,,,,,n,1,0.7838337249995675,,,115,001,2019_Mar_18_1253,test_run,3.0.6,59.99583676010359,
144,ENW,ENW_54_lomering_150219.wav,n,t,,,,,0,163,163,143,,,,,,,,,,,,,,,n,1,0.48563927100622095,,,115,001,2019_Mar_18_1253,test_run,3.0.6,59.99583676010359,
41,EFW,EFW_11_maanniskor_070319.wav,j,t,,,,,0,164,164,40,,,,,,,,,,,,,,,j,1,0.43632732197875157,,,115,001,2019_Mar_18_1253,test_run,3.0.6,59.99583676010359,
161,ENW,ENW_71_forskäckla_150219.wav,n,t,,,,,0,165,165,160,,,,,,,,,,,,,,,n,1,0.4528135190194007,,,115,001,2019_Mar_18_1253,test_run,3.0.6,59.99583676010359,
147,ENW,ENW_57_flovanning_150219.wav,n,t,,,,,0,166,166,146,,,,,,,,,,,,,,,n,1,0.45265007999842055,,,115,001,2019_Mar_18_1253,test_run,3.0.6,59.99583676010359,
66,EFW,EFW_36_haarifroan_070319.wav,j,t,,,,,0,167,167,65,,,,,,,,,,,,,,,j,1,0.5688559320115019,,,115,001,2019_Mar_18_1253,test_run,3.0.6,59.99583676010359,
94,ENW,ENW_4_kyllfaren_150219.wav,n,t,,,,,0,168,168,93,,,,,,,,,,,,,,,n,1,0.5006221280200407,,,115,001,2019_Mar_18_1253,test_run,3.0.6,59.99583676010359,
143,ENW,ENW_53_svarmvisso_150219.wav,n,t,,,,,0,169,169,142,,,,,,,,,,,,,,,n,1,0.7694308669888414,,,115,001,2019_Mar_18_1253,test_run,3.0.6,59.99583676010359,
150,ENW,ENW_60_lackpenar_150219.wav,n,t,,,,,0,170,170,149,,,,,,,,,,,,,,,n,1,0.7857939599780366,,,115,001,2019_Mar_18_1253,test_run,3.0.6,59.99583676010359,
19,ETW,ETW_19_saallskapshund_070319.wav,j,t,,,,,0,171,171,18,,,,,,,,,,,,,,,j,1,0.7864400820108131,,,115,001,2019_Mar_18_1253,test_run,3.0.6,59.99583676010359,
96,ENW,ENW_6_vilfroaser_150219.wav,n,t,,,,,0,172,172,95,,,,,,,,,,,,,,,n,1,0.5853465999825858,,,115,001,2019_Mar_18_1253,test_run,3.0.6,59.99583676010359,
114,ENW,ENW_24_samjoner_150219.wav,n,t,,,,,0,173,173,113,,,,,,,,,,,,,,,n,1,0.2695099620032124,,,115,001,2019_Mar_18_1253,test_run,3.0.6,59.99583676010359,
83,EFW,EFW_53_sovrum_070319.wav,j,t,,,,,0,174,174,82,,,,,,,,,,,,,,,j,1,0.8338477969809901,,,115,001,2019_Mar_18_1253,test_run,3.0.6,59.99583676010359,
12,ETW,ETW_12_offerlund_070319.wav,j,t,,,,,0,175,175,11,,,,,,,,,,,,,,,j,1,0.4021700309822336,,,115,001,2019_Mar_18_1253,test_run,3.0.6,59.99583676010359,
48,EFW,EFW_18_nummer_070319.wav,j,t,,,,,0,176,176,47,,,,,,,,,,,,,,,j,1,0.48540013597812504,,,115,001,2019_Mar_18_1253,test_run,3.0.6,59.99583676010359,
1,ETW,ETW_1_oskuld_070319.wav,j,t,,,,,0,177,177,0,,,,,,,,,,,,,,,j,1,0.48631534399464726,,,115,001,2019_Mar_18_1253,test_run,3.0.6,59.99583676010359,
55,EFW,EFW_25_informera_070319.wav,j,t,,,,,0,178,178,54,,,,,,,,,,,,,,,j,1,0.3671679730177857,,,115,001,2019_Mar_18_1253,test_run,3.0.6,59.99583676010359,
87,EFW,EFW_57_loenerna_070319.wav,j,t,,,,,0,179,179,86,,,,,,,,,,,,,,,j,1,0.6195298669917975,,,115,001,2019_Mar_18_1253,test_run,3.0.6,59.99583676010359,
31,TDF,TDF_31_brodd_070319.wav,,,1,rating_t_final.csv,t,final,,,,,0,0,0,0,0,0,0,1,0,0,0,30,,,,,,7,7.52,115,001,2019_Mar_18_1253,test_run,3.0.6,59.99583676010359,
4,TTF,TTF_4_roet_070319.wav,,,1,rating_t_final.csv,t,final,,,,,0,0,0,0,0,0,0,1,0,1,1,3,,,,,,7,2.437,115,001,2019_Mar_18_1253,test_run,3.0.6,59.99583676010359,
23,TDF,TDF_23_hud_070319.wav,,,1,rating_t_final.csv,t,final,,,,,0,0,0,0,0,0,0,1,0,2,2,22,,,,,,3,3.454,115,001,2019_Mar_18_1253,test_run,3.0.6,59.99583676010359,
25,TDF,TDF_25_synd_070319.wav,,,1,rating_t_final.csv,t,final,,,,,0,0,0,0,0,0,0,1,0,3,3,24,,,,,,1,1.919,115,001,2019_Mar_18_1253,test_run,3.0.6,59.99583676010359,
19,TDF,TDF_19_sjod_070319.wav,,,1,rating_t_final.csv,t,final,,,,,0,0,0,0,0,0,0,1,0,4,4,18,,,,,,5,7.303,115,001,2019_Mar_18_1253,test_run,3.0.6,59.99583676010359,
20,TDF,TDF_20_god_070319.wav,,,1,rating_t_final.csv,t,final,,,,,0,0,0,0,0,0,0,1,0,5,5,19,,,,,,1,1.603,115,001,2019_Mar_18_1253,test_run,3.0.6,59.99583676010359,
1,TTF,TTF_1_rit_070319.wav,,,1,rating_t_final.csv,t,final,,,,,0,0,0,0,0,0,0,1,0,6,6,0,,,,,,7,1.404,115,001,2019_Mar_18_1253,test_run,3.0.6,59.99583676010359,
11,TTF,TTF_11_svit_070319.wav,,,1,rating_t_final.csv,t,final,,,,,0,0,0,0,0,0,0,1,0,7,7,10,,,,,,7,1.354,115,001,2019_Mar_18_1253,test_run,3.0.6,59.99583676010359,
6,TTF,TTF_6_voart_070319.wav,,,1,rating_t_final.csv,t,final,,,,,0,0,0,0,0,0,0,1,0,8,8,5,,,,,,7,1.287,115,001,2019_Mar_18_1253,test_run,3.0.6,59.99583676010359,
8,TTF,TTF_8_noet_070319.wav,,,1,rating_t_final.csv,t,final,,,,,0,0,0,0,0,0,0,1,0,9,9,7,,,,,,6,1.87,115,001,2019_Mar_18_1253,test_run,3.0.6,59.99583676010359,
17,TDF,TDF_17_sked_070319.wav,,,1,rating_t_final.csv,t,final,,,,,0,0,0,0,0,0,0,1,0,10,10,16,,,,,,1,1.421,115,001,2019_Mar_18_1253,test_run,3.0.6,59.99583676010359,
7,TTF,TTF_7_vit_070319.wav,,,1,rating_t_final.csv,t,final,,,,,0,0,0,0,0,0,0,1,0,11,11,6,,,,,,7,1.32,115,001,2019_Mar_18_1253,test_run,3.0.6,59.99583676010359,
12,TTF,TTF_12_smet_070319.wav,,,1,rating_t_final.csv,t,final,,,,,0,0,0,0,0,0,0,1,0,12,12,11,,,,,,7,1.305,115,001,2019_Mar_18_1253,test_run,3.0.6,59.99583676010359,
3,TTF,TTF_3_raat_070319.wav,,,1,rating_t_final.csv,t,final,,,,,0,0,0,0,0,0,0,1,0,13,13,2,,,,,,7,1.771,115,001,2019_Mar_18_1253,test_run,3.0.6,59.99583676010359,
18,TDF,TDF_18_sjud_070319.wav,,,1,rating_t_final.csv,t,final,,,,,0,0,0,0,0,0,0,1,0,14,14,17,,,,,,2,2.504,115,001,2019_Mar_18_1253,test_run,3.0.6,59.99583676010359,
9,TTF,TTF_9_bot_070319.wav,,,1,rating_t_final.csv,t,final,,,,,0,0,0,0,0,0,0,1,0,15,15,8,,,,,,7,1.153,115,001,2019_Mar_18_1253,test_run,3.0.6,59.99583676010359,
22,TDF,TDF_22_hed_070319.wav,,,1,rating_t_final.csv,t,final,,,,,0,0,0,0,0,0,0,1,0,16,16,21,,,,,,1,1.42,115,001,2019_Mar_18_1253,test_run,3.0.6,59.99583676010359,
14,TTF,TTF_14_mot_070319.wav,,,1,rating_t_final.csv,t,final,,,,,0,0,0,0,0,0,0,1,0,17,17,13,,,,,,7,1.171,115,001,2019_Mar_18_1253,test_run,3.0.6,59.99583676010359,
24,TDF,TDF_24_smid_070319.wav,,,1,rating_t_final.csv,t,final,,,,,0,0,0,0,0,0,0,1,0,18,18,23,,,,,,1,1.954,115,001,2019_Mar_18_1253,test_run,3.0.6,59.99583676010359,
2,TTF,TTF_2_vet_070319.wav,,,1,rating_t_final.csv,t,final,,,,,0,0,0,0,0,0,0,1,0,19,19,1,,,,,,7,1.27,115,001,2019_Mar_18_1253,test_run,3.0.6,59.99583676010359,
10,TTF,TTF_10_broet_070319.wav,,,1,rating_t_final.csv,t,final,,,,,0,0,0,0,0,0,0,1,0,20,20,9,,,,,,7,1.17,115,001,2019_Mar_18_1253,test_run,3.0.6,59.99583676010359,
16,TTF,TTF_16_font_070319.wav,,,1,rating_t_final.csv,t,final,,,,,0,0,0,0,0,0,0,1,0,21,21,15,,,,,,7,1.72,115,001,2019_Mar_18_1253,test_run,3.0.6,59.99583676010359,
27,TDF,TDF_27_sand_070319.wav,,,1,rating_t_final.csv,t,final,,,,,0,0,0,0,0,0,0,1,0,22,22,26,,,,,,4,1.721,115,001,2019_Mar_18_1253,test_run,3.0.6,59.99583676010359,
5,TTF,TTF_5_voat_070319.wav,,,1,rating_t_final.csv,t,final,,,,,0,0,0,0,0,0,0,1,0,23,23,4,,,,,,7,1.12,115,001,2019_Mar_18_1253,test_run,3.0.6,59.99583676010359,
13,TTF,TTF_13_gjut_070319.wav,,,1,rating_t_final.csv,t,final,,,,,0,0,0,0,0,0,0,1,0,24,24,12,,,,,,6,1.937,115,001,2019_Mar_18_1253,test_run,3.0.6,59.99583676010359,
32,TDF,TDF_32_hoard_070319.wav,,,1,rating_t_final.csv,t,final,,,,,0,0,0,0,0,0,0,1,0,25,25,31,,,,,,3,3.971,115,001,2019_Mar_18_1253,test_run,3.0.6,59.99583676010359,
26,TDF,TDF_26_rymd_070319.wav,,,1,rating_t_final.csv,t,final,,,,,0,0,0,0,0,0,0,1,0,26,26,25,,,,,,1,1.287,115,001,2019_Mar_18_1253,test_run,3.0.6,59.99583676010359,
29,TDF,TDF_29_baadd_070319.wav,,,1,rating_t_final.csv,t,final,,,,,0,0,0,0,0,0,0,1,0,27,27,28,,,,,,7,1.687,115,001,2019_Mar_18_1253,test_run,3.0.6,59.99583676010359,
21,TDF,TDF_21_ljod _070319.wav,,,1,rating_t_final.csv,t,final,,,,,0,0,0,0,0,0,0,1,0,28,28,20,,,,,,4,1.787,115,001,2019_Mar_18_1253,test_run,3.0.6,59.99583676010359,
30,TDF,TDF_30_sladd_070319.wav,,,1,rating_t_final.csv,t,final,,,,,0,0,0,0,0,0,0,1,0,29,29,29,,,,,,1,1.304,115,001,2019_Mar_18_1253,test_run,3.0.6,59.99583676010359,
15,TTF,TTF_15_not_070319.wav,,,1,rating_t_final.csv,t,final,,,,,0,0,0,0,0,0,0,1,0,30,30,14,,,,,,7,1.288,115,001,2019_Mar_18_1253,test_run,3.0.6,59.99583676010359,
28,TDF,TDF_28_brand_070319.wav,,,1,rating_t_final.csv,t,final,,,,,0,0,0,0,0,0,0,1,0,31,31,27,,,,,,1,1.371,115,001,2019_Mar_18_1253,test_run,3.0.6,59.99583676010359,
17,TTF,TTF_17_sket_070319.wav,,,1,rating_d_final.csv,d,final,,,,,0,0,0,0,0,1,1,0,0,0,0,16,,,,,,2,2.02,115,001,2019_Mar_18_1253,test_run,3.0.6,59.99583676010359,
26,TTF,TTF_26_rymt_070319.wav,,,1,rating_d_final.csv,d,final,,,,,0,0,0,0,0,1,1,0,0,1,1,25,,,,,,6,2.337,115,001,2019_Mar_18_1253,test_run,3.0.6,59.99583676010359,
22,TTF,TTF_22_het_070319.wav,,,1,rating_d_final.csv,d,final,,,,,0,0,0,0,0,1,1,0,0,2,2,21,,,,,,7,1.104,115,001,2019_Mar_18_1253,test_run,3.0.6,59.99583676010359,
10,TDF,TDF_10_brod_070319.wav,,,1,rating_d_final.csv,d,final,,,,,0,0,0,0,0,1,1,0,0,3,3,9,,,,,,7,1.071,115,001,2019_Mar_18_1253,test_run,3.0.6,59.99583676010359,
12,TDF,TDF_12_smed_070319.wav,,,1,rating_d_final.csv,d,final,,,,,0,0,0,0,0,1,1,0,0,4,4,11,,,,,,7,1.17,115,001,2019_Mar_18_1253,test_run,3.0.6,59.99583676010359,
32,TTF,TTF_32_hoart_070319.wav,,,1,rating_d_final.csv,d,final,,,,,0,0,0,0,0,1,1,0,0,5,5,31,,,,,,1,2.036,115,001,2019_Mar_18_1253,test_run,3.0.6,59.99583676010359,
8,TDF,TDF_8_nod_070319.wav,,,1,rating_d_final.csv,d,final,,,,,0,0,0,0,0,1,1,0,0,6,6,7,,,,,,7,1.57,115,001,2019_Mar_18_1253,test_run,3.0.6,59.99583676010359,
31,TTF,TTF_31_brott_070319.wav,,,1,rating_d_final.csv,d,final,,,,,0,0,0,0,0,1,1,0,0,7,7,30,,,,,,1,1.453,115,001,2019_Mar_18_1253,test_run,3.0.6,59.99583676010359,
24,TTF,TTF_24_smit_070319.wav,,,1,rating_d_final.csv,d,final,,,,,0,0,0,0,0,1,1,0,0,8,8,23,,,,,,6,1.454,115,001,2019_Mar_18_1253,test_run,3.0.6,59.99583676010359,
18,TTF,TTF_18_skjut_070319.wav,,,1,rating_d_final.csv,d,final,,,,,0,0,0,0,0,1,1,0,0,9,9,17,,,,,,1,1.188,115,001,2019_Mar_18_1253,test_run,3.0.6,59.99583676010359,
6,TDF,TDF_6_voard_070319.wav,,,1,rating_d_final.csv,d,final,,,,,0,0,0,0,0,1,1,0,0,10,10,5,,,,,,5,4.987,115,001,2019_Mar_18_1253,test_run,3.0.6,59.99583676010359,
20,TTF,TTF_20_got_070319.wav,,,1,rating_d_final.csv,d,final,,,,,0,0,0,0,0,1,1,0,0,11,11,19,,,,,,3,4.538,115,001,2019_Mar_18_1253,test_run,3.0.6,59.99583676010359,
19,TTF,TTF_19_skoet_070319.wav,,,1,rating_d_final.csv,d,final,,,,,0,0,0,0,0,1,1,0,0,12,12,18,,,,,,2,1.42,115,001,2019_Mar_18_1253,test_run,3.0.6,59.99583676010359,
9,TDF,TDF_9_bod_070319.wav,,,1,rating_d_final.csv,d,final,,,,,0,0,0,0,0,1,1,0,0,13,13,8,,,,,,5,1.37,115,001,2019_Mar_18_1253,test_run,3.0.6,59.99583676010359,
2,TDF,TDF_2_ved_070319.wav,,,1,rating_d_final.csv,d,final,,,,,0,0,0,0,0,1,1,0,0,14,14,1,,,,,,7,0.97,115,001,2019_Mar_18_1253,test_run,3.0.6,59.99583676010359,
14,TDF,TDF_14_mod_070319.wav,,,1,rating_d_final.csv,d,final,,,,,0,0,0,0,0,1,1,0,0,15,15,13,,,,,,5,2.17,115,001,2019_Mar_18_1253,test_run,3.0.6,59.99583676010359,
30,TTF,TTF_30_slatt_070319.wav,,,1,rating_d_final.csv,d,final,,,,,0,0,0,0,0,1,1,0,0,16,16,29,,,,,,3,1.871,115,001,2019_Mar_18_1253,test_run,3.0.6,59.99583676010359,
4,TDF,TDF_4_rod_070319.wav,,,1,rating_d_final.csv,d,final,,,,,0,0,0,0,0,1,1,0,0,17,17,3,,,,,,7,1.221,115,001,2019_Mar_18_1253,test_run,3.0.6,59.99583676010359,
11,TDF,TDF_11_svid_070319.wav,,,1,rating_d_final.csv,d,final,,,,,0,0,0,0,0,1,1,0,0,18,18,10,,,,,,6,1.537,115,001,2019_Mar_18_1253,test_run,3.0.6,59.99583676010359,
1,TDF,TDF_1_rid_070319.wav,,,1,rating_d_final.csv,d,final,,,,,0,0,0,0,0,1,1,0,0,19,19,0,,,,,,7,0.921,115,001,2019_Mar_18_1253,test_run,3.0.6,59.99583676010359,
28,TTF,TTF_28_brant_070319.wav,,,1,rating_d_final.csv,d,final,,,,,0,0,0,0,0,1,1,0,0,20,20,27,,,,,,2,1.186,115,001,2019_Mar_18_1253,test_run,3.0.6,59.99583676010359,
3,TDF,TDF_3_raad_070319.wav,,,1,rating_d_final.csv,d,final,,,,,0,0,0,0,0,1,1,0,0,21,21,2,,,,,,7,1.186,115,001,2019_Mar_18_1253,test_run,3.0.6,59.99583676010359,
27,TTF,TTF_27_sant_070319.wav,,,1,rating_d_final.csv,d,final,,,,,0,0,0,0,0,1,1,0,0,22,22,26,,,,,,1,1.153,115,001,2019_Mar_18_1253,test_run,3.0.6,59.99583676010359,
25,TTF,TTF_25_synt_070319.wav,,,1,rating_d_final.csv,d,final,,,,,0,0,0,0,0,1,1,0,0,23,23,24,,,,,,2,1.387,115,001,2019_Mar_18_1253,test_run,3.0.6,59.99583676010359,
15,TDF,TDF_15_nod_070319.wav,,,1,rating_d_final.csv,d,final,,,,,0,0,0,0,0,1,1,0,0,24,24,14,,,,,,6,4.571,115,001,2019_Mar_18_1253,test_run,3.0.6,59.99583676010359,
13,TDF,TDF_13_ljud_070319.wav,,,1,rating_d_final.csv,d,final,,,,,0,0,0,0,0,1,1,0,0,25,25,12,,,,,,7,1.071,115,001,2019_Mar_18_1253,test_run,3.0.6,59.99583676010359,
16,TDF,TDF_16_fond_070319.wav,,,1,rating_d_final.csv,d,final,,,,,0,0,0,0,0,1,1,0,0,26,26,15,,,,,,7,1.104,115,001,2019_Mar_18_1253,test_run,3.0.6,59.99583676010359,
5,TDF,TDF_5_voad_070319.wav,,,1,rating_d_final.csv,d,final,,,,,0,0,0,0,0,1,1,0,0,27,27,4,,,,,,6,2.786,115,001,2019_Mar_18_1253,test_run,3.0.6,59.99583676010359,
21,TTF,TTF_21_gjoet_070319.wav,,,1,rating_d_final.csv,d,final,,,,,0,0,0,0,0,1,1,0,0,28,28,20,,,,,,1,1.487,115,001,2019_Mar_18_1253,test_run,3.0.6,59.99583676010359,
29,TTF,TTF_29_bett_070319.wav,,,1,rating_d_final.csv,d,final,,,,,0,0,0,0,0,1,1,0,0,29,29,28,,,,,,1,1.22,115,001,2019_Mar_18_1253,test_run,3.0.6,59.99583676010359,
7,TDF,TDF_7_vid_070319.wav,,,1,rating_d_final.csv,d,final,,,,,0,0,0,0,0,1,1,0,0,30,30,6,,,,,,5,1.27,115,001,2019_Mar_18_1253,test_run,3.0.6,59.99583676010359,
23,TTF,TTF_23_hut_070319.wav,,,1,rating_d_final.csv,d,final,,,,,0,0,0,0,0,1,1,0,0,31,31,22,,,,,,6,1.288,115,001,2019_Mar_18_1253,test_run,3.0.6,59.99583676010359,
17,TDI,TDI_17_dopp_150219.wav,,,2,rating_t_initial.csv,t,initial,,,,,0,1,1,1,0,0,0,1,0,0,0,16,,,,,,1,3.321,115,001,2019_Mar_18_1253,test_run,3.0.6,59.99583676010359,
15,TDI,TDI_15_dom_150219.wav,,,2,rating_t_initial.csv,t,initial,,,,,0,1,1,1,0,0,0,1,0,1,1,14,,,,,,1,1.187,115,001,2019_Mar_18_1253,test_run,3.0.6,59.99583676010359,
3,TTI,TTI_3_tal_150219.wav,,,2,rating_t_initial.csv,t,initial,,,,,0,1,1,1,0,0,0,1,0,2,2,2,,,,,,1,0.52,115,001,2019_Mar_18_1253,test_run,3.0.6,59.99583676010359,
4,TTI,TTI_4_tam_150219.wav,,,2,rating_t_initial.csv,t,initial,,,,,0,1,1,1,0,0,0,1,0,3,3,3,,,,,,1,1.104,115,001,2019_Mar_18_1253,test_run,3.0.6,59.99583676010359,
23,TDI,TDI_23_doa_150219.wav,,,2,rating_t_initial.csv,t,initial,,,,,0,1,1,1,0,0,0,1,0,4,4,22,,,,,,1,1.436,115,001,2019_Mar_18_1253,test_run,3.0.6,59.99583676010359,
6,TTI,TTI_6_teg_150219.wav,,,2,rating_t_initial.csv,t,initial,,,,,0,1,1,1,0,0,0,1,0,5,5,5,,,,,,4,0.971,115,001,2019_Mar_18_1253,test_run,3.0.6,59.99583676010359,
12,TTI,TTI_12_toa_150219.wav,,,2,rating_t_initial.csv,t,initial,,,,,0,1,1,1,0,0,0,1,0,6,6,11,,,,,,6,1.253,115,001,2019_Mar_18_1253,test_run,3.0.6,59.99583676010359,
2,TTI,TTI_2_tagg_150219.wav,,,2,rating_t_initial.csv,t,initial,,,,,0,1,1,1,0,0,0,1,0,7,7,1,,,,,,2,0.77,115,001,2019_Mar_18_1253,test_run,3.0.6,59.99583676010359,
9,TTI,TTI_9_till_150219.wav,,,2,rating_t_initial.csv,t,initial,,,,,0,1,1,1,0,0,0,1,0,8,8,8,,,,,,6,1.255,115,001,2019_Mar_18_1253,test_run,3.0.6,59.99583676010359,
21,TDI,TDI_21_dugg_150219.wav,,,2,rating_t_initial.csv,t,initial,,,,,0,1,1,1,0,0,0,1,0,9,9,20,,,,,,3,2.736,115,001,2019_Mar_18_1253,test_run,3.0.6,59.99583676010359,
10,TTI,TTI_10_titt_150219.wav,,,2,rating_t_initial.csv,t,initial,,,,,0,1,1,1,0,0,0,1,0,10,10,9,,,,,,1,0.704,115,001,2019_Mar_18_1253,test_run,3.0.6,59.99583676010359,
24,TDI,TDI_24_daack_150219.wav,,,2,rating_t_initial.csv,t,initial,,,,,0,1,1,1,0,0,0,1,0,11,11,23,,,,,,1,0.803,115,001,2019_Mar_18_1253,test_run,3.0.6,59.99583676010359,
16,TDI,TDI_16_don_150219.wav,,,2,rating_t_initial.csv,t,initial,,,,,0,1,1,1,0,0,0,1,0,12,12,15,,,,,,1,0.67,115,001,2019_Mar_18_1253,test_run,3.0.6,59.99583676010359,
14,TTI,TTI_14_tok_150219.wav,,,2,rating_t_initial.csv,t,initial,,,,,0,1,1,1,0,0,0,1,0,13,13,13,,,,,,3,1.954,115,001,2019_Mar_18_1253,test_run,3.0.6,59.99583676010359,
19,TDI,TDI_19_dun_150219.wav,,,2,rating_t_initial.csv,t,initial,,,,,0,1,1,1,0,0,0,1,0,14,14,18,,,,,,1,0.637,115,001,2019_Mar_18_1253,test_run,3.0.6,59.99583676010359,
11,TTI,TTI_11_tipp_150219.wav,,,2,rating_t_initial.csv,t,initial,,,,,0,1,1,1,0,0,0,1,0,15,15,10,,,,,,4,0.954,115,001,2019_Mar_18_1253,test_run,3.0.6,59.99583676010359,
8,TTI,TTI_8_tia_150219.wav,,,2,rating_t_initial.csv,t,initial,,,,,0,1,1,1,0,0,0,1,0,16,16,7,,,,,,6,0.704,115,001,2019_Mar_18_1253,test_run,3.0.6,59.99583676010359,
5,TTI,TTI_5_tass_150219.wav,,,2,rating_t_initial.csv,t,initial,,,,,0,1,1,1,0,0,0,1,0,17,17,4,,,,,,2,0.637,115,001,2019_Mar_18_1253,test_run,3.0.6,59.99583676010359,
25,TDI,TDI_25_daar_150219.wav,,,2,rating_t_initial.csv,t,initial,,,,,0,1,1,1,0,0,0,1,0,18,18,24,,,,,,1,0.787,115,001,2019_Mar_18_1253,test_run,3.0.6,59.99583676010359,
26,TDI,TDI_26_doe_150219.wav,,,2,rating_t_initial.csv,t,initial,,,,,0,1,1,1,0,0,0,1,0,19,19,25,,,,,,1,0.685,115,001,2019_Mar_18_1253,test_run,3.0.6,59.99583676010359,
1,TTI,TTI_1_tag_150219.wav,,,2,rating_t_initial.csv,t,initial,,,,,0,1,1,1,0,0,0,1,0,20,20,0,,,,,,1,0.471,115,001,2019_Mar_18_1253,test_run,3.0.6,59.99583676010359,
13,TTI,TTI_13_tog_150219.wav,,,2,rating_t_initial.csv,t,initial,,,,,0,1,1,1,0,0,0,1,0,21,21,12,,,,,,3,1.27,115,001,2019_Mar_18_1253,test_run,3.0.6,59.99583676010359,
18,TDI,TDI_18_dum_150219.wav,,,2,rating_t_initial.csv,t,initial,,,,,0,1,1,1,0,0,0,1,0,22,22,17,,,,,,1,0.669,115,001,2019_Mar_18_1253,test_run,3.0.6,59.99583676010359,
7,TTI,TTI_7_tenn_150219.wav,,,2,rating_t_initial.csv,t,initial,,,,,0,1,1,1,0,0,0,1,0,23,23,6,,,,,,1,0.736,115,001,2019_Mar_18_1253,test_run,3.0.6,59.99583676010359,
22,TDI,TDI_22_dy_150219.wav,,,2,rating_t_initial.csv,t,initial,,,,,0,1,1,1,0,0,0,1,0,24,24,21,,,,,,1,1.354,115,001,2019_Mar_18_1253,test_run,3.0.6,59.99583676010359,
20,TDI,TDI_20_dur_150219.wav,,,2,rating_t_initial.csv,t,initial,,,,,0,1,1,1,0,0,0,1,0,25,25,19,,,,,,1,0.636,115,001,2019_Mar_18_1253,test_run,3.0.6,59.99583676010359,
27,TDI,TDI_27_doem_edit_150219.wav,,,2,rating_t_initial.csv,t,initial,,,,,0,1,1,1,0,0,0,1,0,26,26,26,,,,,,1,0.638,115,001,2019_Mar_18_1253,test_run,3.0.6,59.99583676010359,
25,TTI,TTI_25_taar_150219.wav,,,2,rating_d_initial.csv,d,initial,,,,,0,1,1,1,0,1,1,0,0,0,0,24,,,,,,7,1.121,115,001,2019_Mar_18_1253,test_run,3.0.6,59.99583676010359,
4,TDI,TDI_4_dam_150219.wav,,,2,rating_d_initial.csv,d,initial,,,,,0,1,1,1,0,1,1,0,0,1,1,3,,,,,,7,1.654,115,001,2019_Mar_18_1253,test_run,3.0.6,59.99583676010359,
10,TDI,TDI_10_ditt_150219.wav,,,2,rating_d_initial.csv,d,initial,,,,,0,1,1,1,0,1,1,0,0,2,2,9,,,,,,7,1.087,115,001,2019_Mar_18_1253,test_run,3.0.6,59.99583676010359,
20,TTI,TTI_20_tur_150219.wav,,,2,rating_d_initial.csv,d,initial,,,,,0,1,1,1,0,1,1,0,0,3,3,19,,,,,,6,1.437,115,001,2019_Mar_18_1253,test_run,3.0.6,59.99583676010359,
13,TDI,TDI_13_dog_150219.wav,,,2,rating_d_initial.csv,d,initial,,,,,0,1,1,1,0,1,1,0,0,4,4,12,,,,,,7,1.203,115,001,2019_Mar_18_1253,test_run,3.0.6,59.99583676010359,
15,TTI,TTI_15_tom_150219.wav,,,2,rating_d_initial.csv,d,initial,,,,,0,1,1,1,0,1,1,0,0,5,5,14,,,,,,1,1.221,115,001,2019_Mar_18_1253,test_run,3.0.6,59.99583676010359,
26,TTI,TTI_26_toe_150219.wav,,,2,rating_d_initial.csv,d,initial,,,,,0,1,1,1,0,1,1,0,0,6,6,25,,,,,,7,1.07,115,001,2019_Mar_18_1253,test_run,3.0.6,59.99583676010359,
18,TTI,TTI_18_tum_150219.wav,,,2,rating_d_initial.csv,d,initial,,,,,0,1,1,1,0,1,1,0,0,7,7,17,,,,,,4,1.488,115,001,2019_Mar_18_1253,test_run,3.0.6,59.99583676010359,
6,TDI,TDI_6_deg_150219.wav,,,2,rating_d_initial.csv,d,initial,,,,,0,1,1,1,0,1,1,0,0,8,8,5,,,,,,7,0.654,115,001,2019_Mar_18_1253,test_run,3.0.6,59.99583676010359,
21,TTI,TTI_21_tugg_150219.wav,,,2,rating_d_initial.csv,d,initial,,,,,0,1,1,1,0,1,1,0,0,9,9,20,,,,,,4,0.937,115,001,2019_Mar_18_1253,test_run,3.0.6,59.99583676010359,
7,TDI,TDI_7_den_150219.wav,,,2,rating_d_initial.csv,d,initial,,,,,0,1,1,1,0,1,1,0,0,10,10,6,,,,,,7,1.053,115,001,2019_Mar_18_1253,test_run,3.0.6,59.99583676010359,
16,TTI,TTI_16_ton_150219.wav,,,2,rating_d_initial.csv,d,initial,,,,,0,1,1,1,0,1,1,0,0,11,11,15,,,,,,2,1.154,115,001,2019_Mar_18_1253,test_run,3.0.6,59.99583676010359,
9,TDI,TDI_9_dill_150219.wav,,,2,rating_d_initial.csv,d,initial,,,,,0,1,1,1,0,1,1,0,0,12,12,8,,,,,,7,1.037,115,001,2019_Mar_18_1253,test_run,3.0.6,59.99583676010359,
14,TDI,TDI_14_dok_150219.wav,,,2,rating_d_initial.csv,d,initial,,,,,0,1,1,1,0,1,1,0,0,13,13,13,,,,,,5,3.32,115,001,2019_Mar_18_1253,test_run,3.0.6,59.99583676010359,
27,TTI,TTI_27_toem_150219.wav,,,2,rating_d_initial.csv,d,initial,,,,,0,1,1,1,0,1,1,0,0,14,14,26,,,,,,2,0.937,115,001,2019_Mar_18_1253,test_run,3.0.6,59.99583676010359,
19,TTI,TTI_19_tun_150219.wav,,,2,rating_d_initial.csv,d,initial,,,,,0,1,1,1,0,1,1,0,0,15,15,18,,,,,,6,1.804,115,001,2019_Mar_18_1253,test_run,3.0.6,59.99583676010359,
12,TDI,TDI_12_doa_150219.wav,,,2,rating_d_initial.csv,d,initial,,,,,0,1,1,1,0,1,1,0,0,16,16,11,,,,,,6,1.538,115,001,2019_Mar_18_1253,test_run,3.0.6,59.99583676010359,
24,TTI,TTI_24_taack_150219.wav,,,2,rating_d_initial.csv,d,initial,,,,,0,1,1,1,0,1,1,0,0,17,17,23,,,,,,5,2.888,115,001,2019_Mar_18_1253,test_run,3.0.6,59.99583676010359,
22,TTI,TTI_22_ty_150219.wav,,,2,rating_d_initial.csv,d,initial,,,,,0,1,1,1,0,1,1,0,0,18,18,21,,,,,,7,1.137,115,001,2019_Mar_18_1253,test_run,3.0.6,59.99583676010359,
1,TDI,TDI_1_dag_150219.wav,,,2,rating_d_initial.csv,d,initial,,,,,0,1,1,1,0,1,1,0,0,19,19,0,,,,,,7,1.02,115,001,2019_Mar_18_1253,test_run,3.0.6,59.99583676010359,
3,TDI,TDI_3_dal_150219.wav,,,2,rating_d_initial.csv,d,initial,,,,,0,1,1,1,0,1,1,0,0,20,20,2,,,,,,7,1.136,115,001,2019_Mar_18_1253,test_run,3.0.6,59.99583676010359,
17,TTI,TTI_17_topp_150219.wav,,,2,rating_d_initial.csv,d,initial,,,,,0,1,1,1,0,1,1,0,0,21,21,16,,,,,,2,1.038,115,001,2019_Mar_18_1253,test_run,3.0.6,59.99583676010359,
8,TDI,TDI_8_dia_150219.wav,,,2,rating_d_initial.csv,d,initial,,,,,0,1,1,1,0,1,1,0,0,22,22,7,,,,,,7,1.104,115,001,2019_Mar_18_1253,test_run,3.0.6,59.99583676010359,
5,TDI,TDI_5_dass_150219.wav,,,2,rating_d_initial.csv,d,initial,,,,,0,1,1,1,0,1,1,0,0,23,23,4,,,,,,7,0.788,115,001,2019_Mar_18_1253,test_run,3.0.6,59.99583676010359,
2,TDI,TDI_2_dagg_150219.wav,,,2,rating_d_initial.csv,d,initial,,,,,0,1,1,1,0,1,1,0,0,24,24,1,,,,,,6,0.736,115,001,2019_Mar_18_1253,test_run,3.0.6,59.99583676010359,
23,TTI,TTI_23_toa_150219.wav,,,2,rating_d_initial.csv,d,initial,,,,,0,1,1,1,0,1,1,0,0,25,25,22,,,,,,6,1.121,115,001,2019_Mar_18_1253,test_run,3.0.6,59.99583676010359,
11,TDI,TDI_11_dipp_150219.wav,,,2,rating_d_initial.csv,d,initial,,,,,0,1,1,1,0,1,1,0,0,26,26,10,,,,,,7,0.986,115,001,2019_Mar_18_1253,test_run,3.0.6,59.99583676010359,
