item,item_cond,sound,corr_ans,group,block_id,listname,rating_for,position,trials.thisRepN,trials.thisTrialN,trials.thisN,trials.thisIndex,run_block_type.thisRepN,run_block_type.thisTrialN,run_block_type.thisN,run_block_type.thisIndex,routine.thisRepN,routine.thisTrialN,routine.thisN,routine.thisIndex,rating_trials.thisRepN,rating_trials.thisTrialN,rating_trials.thisN,rating_trials.thisIndex,key_resp_1.keys,key_resp_1.rt,key_resp_2.keys,key_resp_2.corr,key_resp_2.rt,rating_1.response,rating_1.rt,participant,session,date,expName,psychopyVersion,frameRate,
,,,,,,,,,,,,,,,,,,,,,,,,,space,15.102956510992954,,,,,,116,001,2019_Mar_18_1414,test_run,3.0.6,60.024209202200005,
124,ENW,ENW_34_jomera_150219.wav,n,c ,,,,,0,0,0,123,,,,,,,,,,,,,,,n,1,0.8354918750119396,,,116,001,2019_Mar_18_1414,test_run,3.0.6,60.024209202200005,
99,ENW,ENW_9_samlemor_150219.wav,n,c ,,,,,0,1,1,98,,,,,,,,,,,,,,,n,1,0.7854695510177407,,,116,001,2019_Mar_18_1414,test_run,3.0.6,60.024209202200005,
130,ENW,ENW_40_knipackar_150219.wav,n,c ,,,,,0,2,2,129,,,,,,,,,,,,,,,n,1,1.9692734470008872,,,116,001,2019_Mar_18_1414,test_run,3.0.6,60.024209202200005,
63,EFW,EFW_33_elva_070319.wav,j,c ,,,,,0,3,3,62,,,,,,,,,,,,,,,j,1,0.41952225999557413,,,116,001,2019_Mar_18_1414,test_run,3.0.6,60.024209202200005,
123,ENW,ENW_33_froamation_150219.wav,n,c ,,,,,0,4,4,122,,,,,,,,,,,,,,,n,1,2.6357170999981463,,,116,001,2019_Mar_18_1414,test_run,3.0.6,60.024209202200005,
43,EFW,EFW_13_elever_070319.wav,j,c ,,,,,0,5,5,42,,,,,,,,,,,,,,,j,1,7.902851060003741,,,116,001,2019_Mar_18_1414,test_run,3.0.6,60.024209202200005,
145,ENW,ENW_55_invaskin_150219.wav,n,c ,,,,,0,6,6,144,,,,,,,,,,,,,,,n,1,0.7356649359862786,,,116,001,2019_Mar_18_1414,test_run,3.0.6,60.024209202200005,
176,ENW,ENW_86_heloppsin_150219.wav,n,c ,,,,,0,7,7,175,,,,,,,,,,,,,,,n,1,2.6022742169734556,,,116,001,2019_Mar_18_1414,test_run,3.0.6,60.024209202200005,
54,EFW,EFW_24_foersvinner_070319.wav,j,c ,,,,,0,8,8,53,,,,,,,,,,,,,,,j,1,1.6860070370021276,,,116,001,2019_Mar_18_1414,test_run,3.0.6,60.024209202200005,
134,ENW,ENW_44_inlivna_150219.wav,n,c ,,,,,0,9,9,133,,,,,,,,,,,,,,,j,0,0.23625606298446655,,,116,001,2019_Mar_18_1414,test_run,3.0.6,60.024209202200005,
170,ENW,ENW_80_tjarfera_150219.wav,n,c ,,,,,0,10,10,169,,,,,,,,,,,,,,,n,1,0.552247688989155,,,116,001,2019_Mar_18_1414,test_run,3.0.6,60.024209202200005,
59,EFW,EFW_29_formen_070319.wav,j,c ,,,,,0,11,11,58,,,,,,,,,,,,,,,j,1,0.5195733239816036,,,116,001,2019_Mar_18_1414,test_run,3.0.6,60.024209202200005,
154,ENW,ENW_64_havskvare_150219.wav,n,c ,,,,,0,12,12,153,,,,,,,,,,,,,,,n,1,2.619093763001729,,,116,001,2019_Mar_18_1414,test_run,3.0.6,60.024209202200005,
76,EFW,EFW_46_foerhoer_070319.wav,j,c ,,,,,0,13,13,75,,,,,,,,,,,,,,,j,1,0.6865207170194481,,,116,001,2019_Mar_18_1414,test_run,3.0.6,60.024209202200005,
126,ENW,ENW_36_skymlosa_150219.wav,n,c ,,,,,0,14,14,125,,,,,,,,,,,,,,,n,1,3.6687237599981017,,,116,001,2019_Mar_18_1414,test_run,3.0.6,60.024209202200005,
171,ENW,ENW_81_persifera_150219.wav,n,c ,,,,,0,15,15,170,,,,,,,,,,,,,,,n,1,4.1528562270104885,,,116,001,2019_Mar_18_1414,test_run,3.0.6,60.024209202200005,
83,EFW,EFW_53_sovrum_070319.wav,j,c ,,,,,0,16,16,82,,,,,,,,,,,,,,,j,1,0.9527213300170843,,,116,001,2019_Mar_18_1414,test_run,3.0.6,60.024209202200005,
22,ECW,ECW_22_anonyma_070319.wav,j,c ,,,,,0,17,17,21,,,,,,,,,,,,,,,j,1,0.6188933789962903,,,116,001,2019_Mar_18_1414,test_run,3.0.6,60.024209202200005,
45,EFW,EFW_15_oeverens_070319.wav,j,c ,,,,,0,18,18,44,,,,,,,,,,,,,,,j,1,0.5865534059994388,,,116,001,2019_Mar_18_1414,test_run,3.0.6,60.024209202200005,
133,ENW,ENW_43_axalän_150219.wav,n,c ,,,,,0,19,19,132,,,,,,,,,,,,,,,n,1,0.9525758299860172,,,116,001,2019_Mar_18_1414,test_run,3.0.6,60.024209202200005,
118,ENW,ENW_28_läkermask_150219.wav,n,c ,,,,,0,20,20,117,,,,,,,,,,,,,,,n,1,0.9690601819893345,,,116,001,2019_Mar_18_1414,test_run,3.0.6,60.024209202200005,
93,ENW,ENW_3_vissorens_150219.wav,n,c ,,,,,0,21,21,92,,,,,,,,,,,,,,,n,1,0.8528178419801407,,,116,001,2019_Mar_18_1414,test_run,3.0.6,60.024209202200005,
141,ENW,ENW_51_skillare_150219.wav,n,c ,,,,,0,22,22,140,,,,,,,,,,,,,,,n,1,1.4024823420040775,,,116,001,2019_Mar_18_1414,test_run,3.0.6,60.024209202200005,
46,EFW,EFW_16_lyssna_070319.wav,j,c ,,,,,0,23,23,45,,,,,,,,,,,,,,,j,1,0.6854354580282234,,,116,001,2019_Mar_18_1414,test_run,3.0.6,60.024209202200005,
143,ENW,ENW_53_svarmvisso_150219.wav,n,c ,,,,,0,24,24,142,,,,,,,,,,,,,,,n,1,1.4696702960063703,,,116,001,2019_Mar_18_1414,test_run,3.0.6,60.024209202200005,
2,ECW,ECW_2_hinna_070319.wav,j,c ,,,,,0,25,25,1,,,,,,,,,,,,,,,j,1,0.7027821899973787,,,116,001,2019_Mar_18_1414,test_run,3.0.6,60.024209202200005,
48,EFW,EFW_18_nummer_070319.wav,j,c ,,,,,0,26,26,47,,,,,,,,,,,,,,,j,1,0.7025744059938006,,,116,001,2019_Mar_18_1414,test_run,3.0.6,60.024209202200005,
163,ENW,ENW_73_vimmankalla_150219.wav,n,c ,,,,,0,27,27,162,,,,,,,,,,,,,,,n,1,1.2862981130019762,,,116,001,2019_Mar_18_1414,test_run,3.0.6,60.024209202200005,
156,ENW,ENW_66_voarsmenar_150219.wav,n,c ,,,,,0,28,28,155,,,,,,,,,,,,,,,n,1,1.435358120012097,,,116,001,2019_Mar_18_1414,test_run,3.0.6,60.024209202200005,
150,ENW,ENW_60_lackpenar_150219.wav,n,c ,,,,,0,29,29,149,,,,,,,,,,,,,,,n,1,1.0196317349909805,,,116,001,2019_Mar_18_1414,test_run,3.0.6,60.024209202200005,
91,ENW,ENW_1_norsimerar_150219.wav,n,c ,,,,,0,30,30,90,,,,,,,,,,,,,,,n,1,0.9022567879874259,,,116,001,2019_Mar_18_1414,test_run,3.0.6,60.024209202200005,
5,ECW,ECW_5_kamma_070319.wav,j,c ,,,,,0,31,31,4,,,,,,,,,,,,,,,j,1,2.7169107109948527,,,116,001,2019_Mar_18_1414,test_run,3.0.6,60.024209202200005,
29,ECW,ECW_29_mejerier_070319.wav,j,c ,,,,,0,32,32,28,,,,,,,,,,,,,,,j,1,1.252271973004099,,,116,001,2019_Mar_18_1414,test_run,3.0.6,60.024209202200005,
75,EFW,EFW_45_innanfoer_070319.wav,j,c ,,,,,0,33,33,74,,,,,,,,,,,,,,,j,1,1.1524796270241495,,,116,001,2019_Mar_18_1414,test_run,3.0.6,60.024209202200005,
108,ENW,ENW_18_moalursena_150219.wav,n,c ,,,,,0,34,34,107,,,,,,,,,,,,,,,n,1,1.6505462389905006,,,116,001,2019_Mar_18_1414,test_run,3.0.6,60.024209202200005,
35,EFW,EFW_5_samhaalle_070319.wav,j,c ,,,,,0,35,35,34,,,,,,,,,,,,,,,j,1,0.8860497540154029,,,116,001,2019_Mar_18_1414,test_run,3.0.6,60.024209202200005,
34,EFW,EFW_4_foerminska_070319.wav,j,c ,,,,,0,36,36,33,,,,,,,,,,,,,,,j,1,1.2171556259854697,,,116,001,2019_Mar_18_1414,test_run,3.0.6,60.024209202200005,
36,EFW,EFW_6_massa_070319.wav,j,c ,,,,,0,37,37,35,,,,,,,,,,,,,,,j,1,0.9358413800073322,,,116,001,2019_Mar_18_1414,test_run,3.0.6,60.024209202200005,
131,ENW,ENW_41_vessmaren_150219.wav,n,c ,,,,,0,38,38,130,,,,,,,,,,,,,,,n,1,1.3187602749967482,,,116,001,2019_Mar_18_1414,test_run,3.0.6,60.024209202200005,
82,EFW,EFW_52_framhoalla_070319.wav,j,c ,,,,,0,39,39,81,,,,,,,,,,,,,,,j,1,0.752679599012481,,,116,001,2019_Mar_18_1414,test_run,3.0.6,60.024209202200005,
173,ENW,ENW_83_fyrskovar_150219.wav,n,c ,,,,,0,40,40,172,,,,,,,,,,,,,,,n,1,0.8693249950010795,,,116,001,2019_Mar_18_1414,test_run,3.0.6,60.024209202200005,
53,EFW,EFW_23_aamne_070319.wav,j,c ,,,,,0,41,41,52,,,,,,,,,,,,,,,j,1,0.26878751200274564,,,116,001,2019_Mar_18_1414,test_run,3.0.6,60.024209202200005,
57,EFW,EFW_27_analysera_070319.wav,j,c ,,,,,0,42,42,56,,,,,,,,,,,,,,,j,1,0.6355442980129737,,,116,001,2019_Mar_18_1414,test_run,3.0.6,60.024209202200005,
119,ENW,ENW_29_uppskira_150219.wav,n,c ,,,,,0,43,43,118,,,,,,,,,,,,,,,n,1,0.819653982995078,,,116,001,2019_Mar_18_1414,test_run,3.0.6,60.024209202200005,
113,ENW,ENW_23_allsänning_150219.wav,n,c ,,,,,0,44,44,112,,,,,,,,,,,,,,,n,1,0.6187986360164359,,,116,001,2019_Mar_18_1414,test_run,3.0.6,60.024209202200005,
178,ENW,ENW_88_marsifen_150219.wav,n,c ,,,,,0,45,45,177,,,,,,,,,,,,,,,n,1,0.9354989179992117,,,116,001,2019_Mar_18_1414,test_run,3.0.6,60.024209202200005,
62,EFW,EFW_32_fyller_070319.wav,j,c ,,,,,0,46,46,61,,,,,,,,,,,,,,,j,1,2.635668843984604,,,116,001,2019_Mar_18_1414,test_run,3.0.6,60.024209202200005,
172,ENW,ENW_82_värskappa_150219.wav,n,c ,,,,,0,47,47,171,,,,,,,,,,,,,,,n,1,0.936056743026711,,,116,001,2019_Mar_18_1414,test_run,3.0.6,60.024209202200005,
19,ECW,ECW_19_persiska_070319.wav,j,c ,,,,,0,48,48,18,,,,,,,,,,,,,,,j,1,0.7361650819948409,,,116,001,2019_Mar_18_1414,test_run,3.0.6,60.024209202200005,
106,ENW,ENW_16_rolinkar_150219.wav,n,c ,,,,,0,49,49,105,,,,,,,,,,,,,,,n,1,1.2862021270266268,,,116,001,2019_Mar_18_1414,test_run,3.0.6,60.024209202200005,
7,ECW,ECW_7_marin_070319.wav,j,c ,,,,,0,50,50,6,,,,,,,,,,,,,,,j,1,0.6022075219952967,,,116,001,2019_Mar_18_1414,test_run,3.0.6,60.024209202200005,
151,ENW,ENW_61_myckskina_150219.wav,n,c ,,,,,0,51,51,150,,,,,,,,,,,,,,,n,1,1.3028068039857317,,,116,001,2019_Mar_18_1414,test_run,3.0.6,60.024209202200005,
137,ENW,ENW_47_oafläppen_150219.wav,n,c ,,,,,0,52,52,136,,,,,,,,,,,,,,,n,1,0.8362143519916572,,,116,001,2019_Mar_18_1414,test_run,3.0.6,60.024209202200005,
15,ECW,ECW_15_tjuvarna_070319.wav,j,c ,,,,,0,53,53,14,,,,,,,,,,,,,,,j,1,1.0002903629792854,,,116,001,2019_Mar_18_1414,test_run,3.0.6,60.024209202200005,
90,EFW,EFW_60_insulin_070319.wav,j,c ,,,,,0,54,54,89,,,,,,,,,,,,,,,j,1,0.5837083100050222,,,116,001,2019_Mar_18_1414,test_run,3.0.6,60.024209202200005,
148,ENW,ENW_58_malvossa_150219.wav,n,c ,,,,,0,55,55,147,,,,,,,,,,,,,,,n,1,0.5522762229957152,,,116,001,2019_Mar_18_1414,test_run,3.0.6,60.024209202200005,
128,ENW,ENW_38_roakanier_150219.wav,n,c ,,,,,0,56,56,127,,,,,,,,,,,,,,,n,1,1.451951333991019,,,116,001,2019_Mar_18_1414,test_run,3.0.6,60.024209202200005,
144,ENW,ENW_54_lomering_150219.wav,n,c ,,,,,0,57,57,143,,,,,,,,,,,,,,,n,1,5.636443142982898,,,116,001,2019_Mar_18_1414,test_run,3.0.6,60.024209202200005,
67,EFW,EFW_37_foervisso_070319.wav,j,c ,,,,,0,58,58,66,,,,,,,,,,,,,,,j,1,1.0526245149958413,,,116,001,2019_Mar_18_1414,test_run,3.0.6,60.024209202200005,
84,EFW,EFW_54_romaner_070319.wav,j,c ,,,,,0,59,59,83,,,,,,,,,,,,,,,j,1,0.835902074992191,,,116,001,2019_Mar_18_1414,test_run,3.0.6,60.024209202200005,
61,EFW,EFW_31_jaamfoera_070319.wav,j,c ,,,,,0,60,60,60,,,,,,,,,,,,,,,j,1,0.6359991139906924,,,116,001,2019_Mar_18_1414,test_run,3.0.6,60.024209202200005,
98,ENW,ENW_8_haväras_150219.wav,n,c ,,,,,0,61,61,97,,,,,,,,,,,,,,,n,1,0.9859350369952153,,,116,001,2019_Mar_18_1414,test_run,3.0.6,60.024209202200005,
49,EFW,EFW_19_roerelse_070319.wav,j,c ,,,,,0,62,62,48,,,,,,,,,,,,,,,j,1,0.6853668460098561,,,116,001,2019_Mar_18_1414,test_run,3.0.6,60.024209202200005,
70,EFW,EFW_40_miljoner_070319.wav,j,c ,,,,,0,63,63,69,,,,,,,,,,,,,,,j,1,0.3864891979901586,,,116,001,2019_Mar_18_1414,test_run,3.0.6,60.024209202200005,
116,ENW,ENW_26_anufera_150219.wav,n,c ,,,,,0,64,64,115,,,,,,,,,,,,,,,n,1,0.652791331987828,,,116,001,2019_Mar_18_1414,test_run,3.0.6,60.024209202200005,
167,ENW,ENW_77_somfera_150219.wav,n,c ,,,,,0,65,65,166,,,,,,,,,,,,,,,n,1,0.4022214750002604,,,116,001,2019_Mar_18_1414,test_run,3.0.6,60.024209202200005,
140,ENW,ENW_50_omsänare_150219.wav,n,c ,,,,,0,66,66,139,,,,,,,,,,,,,,,n,1,0.7527097909769509,,,116,001,2019_Mar_18_1414,test_run,3.0.6,60.024209202200005,
115,ENW,ENW_25_affierar_150219.wav,n,c ,,,,,0,67,67,114,,,,,,,,,,,,,,,n,1,2.485881792003056,,,116,001,2019_Mar_18_1414,test_run,3.0.6,60.024209202200005,
14,ECW,ECW_14_excellens_070319.wav,j,c ,,,,,0,68,68,13,,,,,,,,,,,,,,,j,1,0.7523288000083994,,,116,001,2019_Mar_18_1414,test_run,3.0.6,60.024209202200005,
94,ENW,ENW_4_kyllfaren_150219.wav,n,c ,,,,,0,69,69,93,,,,,,,,,,,,,,,n,1,1.4025429930188693,,,116,001,2019_Mar_18_1414,test_run,3.0.6,60.024209202200005,
72,EFW,EFW_42_naavaron_070319.wav,j,c ,,,,,0,70,70,71,,,,,,,,,,,,,,,j,1,0.7838673750229646,,,116,001,2019_Mar_18_1414,test_run,3.0.6,60.024209202200005,
122,ENW,ENW_32_fonering_150219.wav,n,c ,,,,,0,71,71,121,,,,,,,,,,,,,,,n,1,0.6367400870076381,,,116,001,2019_Mar_18_1414,test_run,3.0.6,60.024209202200005,
32,EFW,EFW_2_snarare_070319.wav,j,c ,,,,,0,72,72,31,,,,,,,,,,,,,,,j,1,0.6506062019907404,,,116,001,2019_Mar_18_1414,test_run,3.0.6,60.024209202200005,
127,ENW,ENW_37_spallrivet_150219.wav,n,c ,,,,,0,73,73,126,,,,,,,,,,,,,,,n,1,0.8530383320176043,,,116,001,2019_Mar_18_1414,test_run,3.0.6,60.024209202200005,
80,EFW,EFW_50_snaalla_070319.wav,j,c ,,,,,0,74,74,79,,,,,,,,,,,,,,,j,1,0.5695670189743396,,,116,001,2019_Mar_18_1414,test_run,3.0.6,60.024209202200005,
179,ENW,ENW_89_mikenspoan_150219.wav,n,c ,,,,,0,75,75,178,,,,,,,,,,,,,,,n,1,0.7195732200052589,,,116,001,2019_Mar_18_1414,test_run,3.0.6,60.024209202200005,
161,ENW,ENW_71_forskäckla_150219.wav,n,c ,,,,,0,76,76,160,,,,,,,,,,,,,,,n,1,0.6697866729809903,,,116,001,2019_Mar_18_1414,test_run,3.0.6,60.024209202200005,
30,ECW,ECW_30_recensioner_070319.wav,j,c ,,,,,0,77,77,29,,,,,,,,,,,,,,,j,1,0.8023168359941337,,,116,001,2019_Mar_18_1414,test_run,3.0.6,60.024209202200005,
132,ENW,ENW_42_hamsforing_150219.wav,n,c ,,,,,0,78,78,131,,,,,,,,,,,,,,,n,1,6.885842910996871,,,116,001,2019_Mar_18_1414,test_run,3.0.6,60.024209202200005,
168,ENW,ENW_78_morvinder_150219.wav,n,c ,,,,,0,79,79,167,,,,,,,,,,,,,,,n,1,0.8858662230195478,,,116,001,2019_Mar_18_1414,test_run,3.0.6,60.024209202200005,
51,EFW,EFW_21_varierar_070319.wav,j,c ,,,,,0,80,80,50,,,,,,,,,,,,,,,j,1,1.135576686996501,,,116,001,2019_Mar_18_1414,test_run,3.0.6,60.024209202200005,
147,ENW,ENW_57_flovanning_150219.wav,n,c ,,,,,0,81,81,146,,,,,,,,,,,,,,,n,1,1.4528848199988715,,,116,001,2019_Mar_18_1414,test_run,3.0.6,60.024209202200005,
41,EFW,EFW_11_maanniskor_070319.wav,j,c ,,,,,0,82,82,40,,,,,,,,,,,,,,,j,1,0.8196613200125284,,,116,001,2019_Mar_18_1414,test_run,3.0.6,60.024209202200005,
89,EFW,EFW_59_filosofin_070319.wav,j,c ,,,,,0,83,83,88,,,,,,,,,,,,,,,j,1,0.6838959100132342,,,116,001,2019_Mar_18_1414,test_run,3.0.6,60.024209202200005,
52,EFW,EFW_22_normala_070319.wav,j,c ,,,,,0,84,84,51,,,,,,,,,,,,,,,j,1,0.7354515249899123,,,116,001,2019_Mar_18_1414,test_run,3.0.6,60.024209202200005,
135,ENW,ENW_45_fammoarens_150219.wav,n,c ,,,,,0,85,85,134,,,,,,,,,,,,,,,n,1,0.8354739249916747,,,116,001,2019_Mar_18_1414,test_run,3.0.6,60.024209202200005,
3,ECW,ECW_3_virus_070319.wav,j,c ,,,,,0,86,86,2,,,,,,,,,,,,,,,j,1,2.5356218529923353,,,116,001,2019_Mar_18_1414,test_run,3.0.6,60.024209202200005,
24,ECW,ECW_24_fysiker_070319.wav,j,c ,,,,,0,87,87,23,,,,,,,,,,,,,,,j,1,0.5858768720063381,,,116,001,2019_Mar_18_1414,test_run,3.0.6,60.024209202200005,
159,ENW,ENW_69_mjohusa_150219.wav,n,c ,,,,,0,88,88,158,,,,,,,,,,,,,,,n,1,0.8858363519830164,,,116,001,2019_Mar_18_1414,test_run,3.0.6,60.024209202200005,
81,EFW,EFW_51_seminarier_070319.wav,j,c ,,,,,0,89,89,80,,,,,,,,,,,,,,,j,1,0.7854858759965282,,,116,001,2019_Mar_18_1414,test_run,3.0.6,60.024209202200005,
40,EFW,EFW_10_laarare_070319.wav,j,c ,,,,,0,90,90,39,,,,,,,,,,,,,,,j,1,0.6671171819907613,,,116,001,2019_Mar_18_1414,test_run,3.0.6,60.024209202200005,
146,ENW,ENW_56_lysskarna_150219.wav,n,c ,,,,,0,91,91,145,,,,,,,,,,,,,,,n,1,0.8021693859773222,,,116,001,2019_Mar_18_1414,test_run,3.0.6,60.024209202200005,
39,EFW,EFW_9_infektion_070319.wav,j,c ,,,,,0,92,92,38,,,,,,,,,,,,,,,j,1,0.9187947280006483,,,116,001,2019_Mar_18_1414,test_run,3.0.6,60.024209202200005,
160,ENW,ENW_70_roklarner_150219.wav,n,c ,,,,,0,93,93,159,,,,,,,,,,,,,,,n,1,0.8687986730074044,,,116,001,2019_Mar_18_1414,test_run,3.0.6,60.024209202200005,
157,ENW,ENW_67_oafreskar_150219.wav,n,c ,,,,,0,94,94,156,,,,,,,,,,,,,,,n,1,0.38641537801595405,,,116,001,2019_Mar_18_1414,test_run,3.0.6,60.024209202200005,
96,ENW,ENW_6_vilfroaser_150219.wav,n,c ,,,,,0,95,95,95,,,,,,,,,,,,,,,n,1,0.6859950849902816,,,116,001,2019_Mar_18_1414,test_run,3.0.6,60.024209202200005,
110,ENW,ENW_20_invonen_150219.wav,n,c ,,,,,0,96,96,109,,,,,,,,,,,,,,,n,1,0.7858221959904768,,,116,001,2019_Mar_18_1414,test_run,3.0.6,60.024209202200005,
112,ENW,ENW_22_fjäserna_150219.wav,n,c ,,,,,0,97,97,111,,,,,,,,,,,,,,,n,1,0.7022241409868002,,,116,001,2019_Mar_18_1414,test_run,3.0.6,60.024209202200005,
44,EFW,EFW_14_foersoeken_070319.wav,j,c ,,,,,0,98,98,43,,,,,,,,,,,,,,,j,1,0.8505321340053342,,,116,001,2019_Mar_18_1414,test_run,3.0.6,60.024209202200005,
104,ENW,ENW_14_kärmenor_150219.wav,n,c ,,,,,0,99,99,103,,,,,,,,,,,,,,,n,1,0.7862785560137127,,,116,001,2019_Mar_18_1414,test_run,3.0.6,60.024209202200005,
77,EFW,EFW_47_invoanare_070319.wav,j,c ,,,,,0,100,100,76,,,,,,,,,,,,,,,j,1,0.5695126290083863,,,116,001,2019_Mar_18_1414,test_run,3.0.6,60.024209202200005,
95,ENW,ENW_5_spoamisk_150219.wav,n,c ,,,,,0,101,101,94,,,,,,,,,,,,,,,n,1,1.1029620810004417,,,116,001,2019_Mar_18_1414,test_run,3.0.6,60.024209202200005,
8,ECW,ECW_8_fryshus_070319.wav,j,c ,,,,,0,102,102,7,,,,,,,,,,,,,,,j,1,0.6505410220124759,,,116,001,2019_Mar_18_1414,test_run,3.0.6,60.024209202200005,
165,ENW,ENW_75_foarskining_150219.wav,n,c ,,,,,0,103,103,164,,,,,,,,,,,,,,,n,1,0.9027224960154854,,,116,001,2019_Mar_18_1414,test_run,3.0.6,60.024209202200005,
87,EFW,EFW_57_loenerna_070319.wav,j,c ,,,,,0,104,104,86,,,,,,,,,,,,,,,j,1,0.8857665349787567,,,116,001,2019_Mar_18_1414,test_run,3.0.6,60.024209202200005,
175,ENW,ENW_85_forlinna_150219.wav,n,c ,,,,,0,105,105,174,,,,,,,,,,,,,,,n,1,0.5505149030068424,,,116,001,2019_Mar_18_1414,test_run,3.0.6,60.024209202200005,
37,EFW,EFW_7_sociala_070319.wav,j,c ,,,,,0,106,106,36,,,,,,,,,,,,,,,j,1,0.5024434050137643,,,116,001,2019_Mar_18_1414,test_run,3.0.6,60.024209202200005,
105,ENW,ENW_15_forfeckla_150219.wav,n,c ,,,,,0,107,107,104,,,,,,,,,,,,,,,n,1,0.5358625060180202,,,116,001,2019_Mar_18_1414,test_run,3.0.6,60.024209202200005,
88,EFW,EFW_58_examen_070319.wav,j,c ,,,,,0,108,108,87,,,,,,,,,,,,,,,j,1,0.6364713500079233,,,116,001,2019_Mar_18_1414,test_run,3.0.6,60.024209202200005,
11,ECW,ECW_11_foersoeka_070319.wav,j,c ,,,,,0,109,109,10,,,,,,,,,,,,,,,j,1,0.5191064889950212,,,116,001,2019_Mar_18_1414,test_run,3.0.6,60.024209202200005,
68,EFW,EFW_38_foerefoell_070319.wav,j,c ,,,,,0,110,110,67,,,,,,,,,,,,,,,j,1,0.6031588119803928,,,116,001,2019_Mar_18_1414,test_run,3.0.6,60.024209202200005,
64,EFW,EFW_34_sommar_070319.wav,j,c ,,,,,0,111,111,63,,,,,,,,,,,,,,,j,1,0.8026656779984478,,,116,001,2019_Mar_18_1414,test_run,3.0.6,60.024209202200005,
125,ENW,ENW_35_nymaljen_150219.wav,n,c ,,,,,0,112,112,124,,,,,,,,,,,,,,,n,1,0.7196513770031743,,,116,001,2019_Mar_18_1414,test_run,3.0.6,60.024209202200005,
10,ECW,ECW_10_flisa_070319.wav,j,c ,,,,,0,113,113,9,,,,,,,,,,,,,,,j,1,1.7363239839905873,,,116,001,2019_Mar_18_1414,test_run,3.0.6,60.024209202200005,
26,ECW,ECW_26_kroenikoeren_070319.wav,j,c ,,,,,0,114,114,25,,,,,,,,,,,,,,,j,1,0.7357204070140142,,,116,001,2019_Mar_18_1414,test_run,3.0.6,60.024209202200005,
4,ECW,ECW_4_skraalla_070319.wav,j,c ,,,,,0,115,115,3,,,,,,,,,,,,,,,j,1,0.769493230007356,,,116,001,2019_Mar_18_1414,test_run,3.0.6,60.024209202200005,
153,ENW,ENW_63_femyrisk_150219.wav,n,c ,,,,,0,116,116,152,,,,,,,,,,,,,,,n,1,0.8363326819962822,,,116,001,2019_Mar_18_1414,test_run,3.0.6,60.024209202200005,
56,EFW,EFW_26_armarna_070319.wav,j,c ,,,,,0,117,117,55,,,,,,,,,,,,,,,j,1,2.885902044014074,,,116,001,2019_Mar_18_1414,test_run,3.0.6,60.024209202200005,
139,ENW,ENW_49_hälskrena_150219.wav,n,c ,,,,,0,118,118,138,,,,,,,,,,,,,,,n,1,0.6688337809755467,,,116,001,2019_Mar_18_1414,test_run,3.0.6,60.024209202200005,
28,ECW,ECW_28_maskinerna_070319.wav,j,c ,,,,,0,119,119,27,,,,,,,,,,,,,,,j,1,0.5689428840123583,,,116,001,2019_Mar_18_1414,test_run,3.0.6,60.024209202200005,
47,EFW,EFW_17_januari_070319.wav,j,c ,,,,,0,120,120,46,,,,,,,,,,,,,,,j,1,0.7024509760085493,,,116,001,2019_Mar_18_1414,test_run,3.0.6,60.024209202200005,
102,ENW,ENW_12_snälmola_150219.wav,n,c ,,,,,0,121,121,101,,,,,,,,,,,,,,,n,1,0.8198199819889851,,,116,001,2019_Mar_18_1414,test_run,3.0.6,60.024209202200005,
92,ENW,ENW_2_overralka_150219.wav,n,c ,,,,,0,122,122,91,,,,,,,,,,,,,,,n,1,0.5694122790009715,,,116,001,2019_Mar_18_1414,test_run,3.0.6,60.024209202200005,
60,EFW,EFW_30_officiella_070319.wav,j,c ,,,,,0,123,123,59,,,,,,,,,,,,,,,j,1,0.7359573909780011,,,116,001,2019_Mar_18_1414,test_run,3.0.6,60.024209202200005,
65,EFW,EFW_35_affaarer_070319.wav,j,c ,,,,,0,124,124,64,,,,,,,,,,,,,,,j,1,0.4026747700117994,,,116,001,2019_Mar_18_1414,test_run,3.0.6,60.024209202200005,
180,ENW,ENW_90_skrivinar_150219.wav,n,c ,,,,,0,125,125,179,,,,,,,,,,,,,,,n,1,0.4528539550083224,,,116,001,2019_Mar_18_1414,test_run,3.0.6,60.024209202200005,
23,ECW,ECW_23_maximal_070319.wav,j,c ,,,,,0,126,126,22,,,,,,,,,,,,,,,j,1,0.5855495870055165,,,116,001,2019_Mar_18_1414,test_run,3.0.6,60.024209202200005,
166,ENW,ENW_76_omfläskor_150219.wav,n,c ,,,,,0,127,127,165,,,,,,,,,,,,,,,n,1,0.40293536300305277,,,116,001,2019_Mar_18_1414,test_run,3.0.6,60.024209202200005,
20,ECW,ECW_20_sommarspel_070319.wav,j,c ,,,,,0,128,128,19,,,,,,,,,,,,,,,j,1,0.36952473598648794,,,116,001,2019_Mar_18_1414,test_run,3.0.6,60.024209202200005,
69,EFW,EFW_39_foersvara_070319.wav,j,c ,,,,,0,129,129,68,,,,,,,,,,,,,,,j,1,0.30231201302376576,,,116,001,2019_Mar_18_1414,test_run,3.0.6,60.024209202200005,
78,EFW,EFW_48_varifroan_070319.wav,j,c ,,,,,0,130,130,77,,,,,,,,,,,,,,,j,1,0.3197438719798811,,,116,001,2019_Mar_18_1414,test_run,3.0.6,60.024209202200005,
169,ENW,ENW_79_lyxmare_150219.wav,n,c ,,,,,0,131,131,168,,,,,,,,,,,,,,,n,1,0.43576292201760225,,,116,001,2019_Mar_18_1414,test_run,3.0.6,60.024209202200005,
100,ENW,ENW_10_skinnamer_150219.wav,n,c ,,,,,0,132,132,99,,,,,,,,,,,,,,,n,1,0.585295152006438,,,116,001,2019_Mar_18_1414,test_run,3.0.6,60.024209202200005,
55,EFW,EFW_25_informera_070319.wav,j,c ,,,,,0,133,133,54,,,,,,,,,,,,,,,j,1,0.4338305899873376,,,116,001,2019_Mar_18_1414,test_run,3.0.6,60.024209202200005,
103,ENW,ENW_13_forvaron_150219.wav,n,c ,,,,,0,134,134,102,,,,,,,,,,,,,,,n,1,0.7338937100139447,,,116,001,2019_Mar_18_1414,test_run,3.0.6,60.024209202200005,
129,ENW,ENW_39_ljusonar_150219.wav,n,c ,,,,,0,135,135,128,,,,,,,,,,,,,,,n,1,0.8026128749770578,,,116,001,2019_Mar_18_1414,test_run,3.0.6,60.024209202200005,
138,ENW,ENW_48_skyjamsen_150219.wav,n,c ,,,,,0,136,136,137,,,,,,,,,,,,,,,n,1,0.4362275940075051,,,116,001,2019_Mar_18_1414,test_run,3.0.6,60.024209202200005,
85,EFW,EFW_55_oroar_070319.wav,j,c ,,,,,0,137,137,84,,,,,,,,,,,,,,,j,1,0.553027657995699,,,116,001,2019_Mar_18_1414,test_run,3.0.6,60.024209202200005,
174,ENW,ENW_84_hurmarna_150219.wav,n,c ,,,,,0,138,138,173,,,,,,,,,,,,,,,n,1,1.018864746001782,,,116,001,2019_Mar_18_1414,test_run,3.0.6,60.024209202200005,
71,EFW,EFW_41_infinna_070319.wav,j,c ,,,,,0,139,139,70,,,,,,,,,,,,,,,j,1,0.6521134779904969,,,116,001,2019_Mar_18_1414,test_run,3.0.6,60.024209202200005,
164,ENW,ENW_74_malsera_150219.wav,n,c ,,,,,0,140,140,163,,,,,,,,,,,,,,,n,1,0.6193401369964704,,,116,001,2019_Mar_18_1414,test_run,3.0.6,60.024209202200005,
86,EFW,EFW_56_mormor_070319.wav,j,c ,,,,,0,141,141,85,,,,,,,,,,,,,,,j,1,0.6003807030210737,,,116,001,2019_Mar_18_1414,test_run,3.0.6,60.024209202200005,
121,ENW,ENW_31_romation_150219.wav,n,c ,,,,,0,142,142,120,,,,,,,,,,,,,,,n,1,0.7026386009820271,,,116,001,2019_Mar_18_1414,test_run,3.0.6,60.024209202200005,
107,ENW,ENW_17_kopynnor_150219.wav,n,c ,,,,,0,143,143,106,,,,,,,,,,,,,,,n,1,0.4696685299859382,,,116,001,2019_Mar_18_1414,test_run,3.0.6,60.024209202200005,
111,ENW,ENW_21_tjulning_150219.wav,n,c ,,,,,0,144,144,110,,,,,,,,,,,,,,,j,0,1.5691537040111143,,,116,001,2019_Mar_18_1414,test_run,3.0.6,60.024209202200005,
12,ECW,ECW_12_moehippa_070319.wav,j,c ,,,,,0,145,145,11,,,,,,,,,,,,,,,j,1,0.6192250630119815,,,116,001,2019_Mar_18_1414,test_run,3.0.6,60.024209202200005,
58,EFW,EFW_28_olja_070319.wav,j,c ,,,,,0,146,146,57,,,,,,,,,,,,,,,j,1,0.8530375689733773,,,116,001,2019_Mar_18_1414,test_run,3.0.6,60.024209202200005,
79,EFW,EFW_49_vaasen_070319.wav,j,c ,,,,,0,147,147,78,,,,,,,,,,,,,,,j,1,0.6862665500084404,,,116,001,2019_Mar_18_1414,test_run,3.0.6,60.024209202200005,
136,ENW,ENW_46_pommera_150219.wav,n,c ,,,,,0,148,148,135,,,,,,,,,,,,,,,n,1,0.918772560020443,,,116,001,2019_Mar_18_1414,test_run,3.0.6,60.024209202200005,
33,EFW,EFW_3_familjen_070319.wav,j,c ,,,,,0,149,149,32,,,,,,,,,,,,,,,j,1,0.6530840380000882,,,116,001,2019_Mar_18_1414,test_run,3.0.6,60.024209202200005,
120,ENW,ENW_30_sojera_150219.wav,n,c ,,,,,0,150,150,119,,,,,,,,,,,,,,,n,1,0.635985608008923,,,116,001,2019_Mar_18_1414,test_run,3.0.6,60.024209202200005,
114,ENW,ENW_24_samjoner_150219.wav,n,c ,,,,,0,151,151,113,,,,,,,,,,,,,,,n,1,0.5505356829962693,,,116,001,2019_Mar_18_1414,test_run,3.0.6,60.024209202200005,
155,ENW,ENW_65_hamfylla_150219.wav,n,c ,,,,,0,152,152,154,,,,,,,,,,,,,,,n,1,0.6521238230052404,,,116,001,2019_Mar_18_1414,test_run,3.0.6,60.024209202200005,
74,EFW,EFW_44_ljusa_070319.wav,j,c ,,,,,0,153,153,73,,,,,,,,,,,,,,,j,1,0.6194961089931894,,,116,001,2019_Mar_18_1414,test_run,3.0.6,60.024209202200005,
109,ENW,ENW_19_morloren_150219.wav,n,c ,,,,,0,154,154,108,,,,,,,,,,,,,,,n,1,0.6361526800028514,,,116,001,2019_Mar_18_1414,test_run,3.0.6,60.024209202200005,
97,ENW,ENW_7_flasera_150219.wav,n,c ,,,,,0,155,155,96,,,,,,,,,,,,,,,n,1,0.6692884899966884,,,116,001,2019_Mar_18_1414,test_run,3.0.6,60.024209202200005,
117,ENW,ENW_27_lyssvinner_150219.wav,n,c ,,,,,0,156,156,116,,,,,,,,,,,,,,,n,1,0.8026536119868979,,,116,001,2019_Mar_18_1414,test_run,3.0.6,60.024209202200005,
42,EFW,EFW_12_foeremoal_070319.wav,j,c ,,,,,0,157,157,41,,,,,,,,,,,,,,,j,1,0.8359818339813501,,,116,001,2019_Mar_18_1414,test_run,3.0.6,60.024209202200005,
177,ENW,ENW_87_kloavare_150219.wav,n,c ,,,,,0,158,158,176,,,,,,,,,,,,,,,n,1,0.5358824699942488,,,116,001,2019_Mar_18_1414,test_run,3.0.6,60.024209202200005,
13,ECW,ECW_13_kanonform_070319.wav,j,c ,,,,,0,159,159,12,,,,,,,,,,,,,,,j,1,0.5671501860197168,,,116,001,2019_Mar_18_1414,test_run,3.0.6,60.024209202200005,
18,ECW,ECW_18_morkulla_070319.wav,j,c ,,,,,0,160,160,17,,,,,,,,,,,,,,,j,1,0.5527243099932093,,,116,001,2019_Mar_18_1414,test_run,3.0.6,60.024209202200005,
50,EFW,EFW_20_fenomen_070319.wav,j,c ,,,,,0,161,161,49,,,,,,,,,,,,,,,j,1,0.6170791120093782,,,116,001,2019_Mar_18_1414,test_run,3.0.6,60.024209202200005,
66,EFW,EFW_36_haarifroan_070319.wav,j,c ,,,,,0,162,162,65,,,,,,,,,,,,,,,j,1,0.7505112589860801,,,116,001,2019_Mar_18_1414,test_run,3.0.6,60.024209202200005,
16,ECW,ECW_16_skinskalle_070319.wav,j,c ,,,,,0,163,163,15,,,,,,,,,,,,,,,j,1,0.636196164006833,,,116,001,2019_Mar_18_1414,test_run,3.0.6,60.024209202200005,
162,ENW,ENW_72_urskecken_150219.wav,n,c ,,,,,0,164,164,161,,,,,,,,,,,,,,,n,1,0.7528115879977122,,,116,001,2019_Mar_18_1414,test_run,3.0.6,60.024209202200005,
142,ENW,ENW_52_filofyll_150219.wav,n,c ,,,,,0,165,165,141,,,,,,,,,,,,,,,n,1,0.6190607479948085,,,116,001,2019_Mar_18_1414,test_run,3.0.6,60.024209202200005,
152,ENW,ENW_62_ljullepilja_150219.wav,n,c ,,,,,0,166,166,151,,,,,,,,,,,,,,,n,1,0.5523581049928907,,,116,001,2019_Mar_18_1414,test_run,3.0.6,60.024209202200005,
31,EFW,EFW_1_allmaan_070319.wav,j,c ,,,,,0,167,167,30,,,,,,,,,,,,,,,j,1,0.6697290849988349,,,116,001,2019_Mar_18_1414,test_run,3.0.6,60.024209202200005,
21,ECW,ECW_21_husera_070319.wav,j,c ,,,,,0,168,168,20,,,,,,,,,,,,,,,j,1,0.6355040720081888,,,116,001,2019_Mar_18_1414,test_run,3.0.6,60.024209202200005,
1,ECW,ECW_1_anka_070319.wav,j,c ,,,,,0,169,169,0,,,,,,,,,,,,,,,j,1,1.669673070020508,,,116,001,2019_Mar_18_1414,test_run,3.0.6,60.024209202200005,
17,ECW,ECW_17_majonnaas_070319.wav,j,c ,,,,,0,170,170,16,,,,,,,,,,,,,,,j,1,0.5168886189931072,,,116,001,2019_Mar_18_1414,test_run,3.0.6,60.024209202200005,
38,EFW,EFW_8_samman_070319.wav,j,c ,,,,,0,171,171,37,,,,,,,,,,,,,,,n,0,0.8523007309995592,,,116,001,2019_Mar_18_1414,test_run,3.0.6,60.024209202200005,
149,ENW,ENW_59_kyrkmänning_150219.wav,n,c ,,,,,0,172,172,148,,,,,,,,,,,,,,,n,1,0.9022902860015165,,,116,001,2019_Mar_18_1414,test_run,3.0.6,60.024209202200005,
101,ENW,ENW_11_fränna_150219.wav,n,c ,,,,,0,173,173,100,,,,,,,,,,,,,,,n,1,0.5858278940140735,,,116,001,2019_Mar_18_1414,test_run,3.0.6,60.024209202200005,
27,ECW,ECW_27_panorama_070319.wav,j,c ,,,,,0,174,174,26,,,,,,,,,,,,,,,j,1,0.6356847340066452,,,116,001,2019_Mar_18_1414,test_run,3.0.6,60.024209202200005,
73,EFW,EFW_43_halvoar_070319.wav,j,c ,,,,,0,175,175,72,,,,,,,,,,,,,,,j,1,1.5030910929781385,,,116,001,2019_Mar_18_1414,test_run,3.0.6,60.024209202200005,
9,ECW,ECW_9_spinna_070319.wav,j,c ,,,,,0,176,176,8,,,,,,,,,,,,,,,j,1,0.6859019469993655,,,116,001,2019_Mar_18_1414,test_run,3.0.6,60.024209202200005,
6,ECW,ECW_6_sila_070319.wav,j,c ,,,,,0,177,177,5,,,,,,,,,,,,,,,n,0,0.852609258989105,,,116,001,2019_Mar_18_1414,test_run,3.0.6,60.024209202200005,
25,ECW,ECW_25_oeverfoeras_070319.wav,j,c ,,,,,0,178,178,24,,,,,,,,,,,,,,,j,1,0.769119515985949,,,116,001,2019_Mar_18_1414,test_run,3.0.6,60.024209202200005,
158,ENW,ENW_68_presionar_150219.wav,n,c ,,,,,0,179,179,157,,,,,,,,,,,,,,,n,1,0.6360744280100334,,,116,001,2019_Mar_18_1414,test_run,3.0.6,60.024209202200005,
22,TDF,TDF_22_hed_070319.wav,,,1,rating_t_final.csv,t,final,,,,,0,0,0,0,0,0,0,1,0,0,0,21,,,,,,6,23.403,116,001,2019_Mar_18_1414,test_run,3.0.6,60.024209202200005,
7,TTF,TTF_7_vit_070319.wav,,,1,rating_t_final.csv,t,final,,,,,0,0,0,0,0,0,0,1,0,1,1,6,,,,,,7,4.571,116,001,2019_Mar_18_1414,test_run,3.0.6,60.024209202200005,
27,TDF,TDF_27_sand_070319.wav,,,1,rating_t_final.csv,t,final,,,,,0,0,0,0,0,0,0,1,0,2,2,26,,,,,,5,6.571,116,001,2019_Mar_18_1414,test_run,3.0.6,60.024209202200005,
6,TTF,TTF_6_voart_070319.wav,,,1,rating_t_final.csv,t,final,,,,,0,0,0,0,0,0,0,1,0,3,3,5,,,,,,7,3.454,116,001,2019_Mar_18_1414,test_run,3.0.6,60.024209202200005,
5,TTF,TTF_5_voat_070319.wav,,,1,rating_t_final.csv,t,final,,,,,0,0,0,0,0,0,0,1,0,4,4,4,,,,,,7,4.97,116,001,2019_Mar_18_1414,test_run,3.0.6,60.024209202200005,
3,TTF,TTF_3_raat_070319.wav,,,1,rating_t_final.csv,t,final,,,,,0,0,0,0,0,0,0,1,0,5,5,2,,,,,,7,9.253,116,001,2019_Mar_18_1414,test_run,3.0.6,60.024209202200005,
2,TTF,TTF_2_vet_070319.wav,,,1,rating_t_final.csv,t,final,,,,,0,0,0,0,0,0,0,1,0,6,6,1,,,,,,7,3.221,116,001,2019_Mar_18_1414,test_run,3.0.6,60.024209202200005,
11,TTF,TTF_11_svit_070319.wav,,,1,rating_t_final.csv,t,final,,,,,0,0,0,0,0,0,0,1,0,7,7,10,,,,,,7,2.237,116,001,2019_Mar_18_1414,test_run,3.0.6,60.024209202200005,
19,TDF,TDF_19_sjod_070319.wav,,,1,rating_t_final.csv,t,final,,,,,0,0,0,0,0,0,0,1,0,8,8,18,,,,,,4,3.037,116,001,2019_Mar_18_1414,test_run,3.0.6,60.024209202200005,
10,TTF,TTF_10_broet_070319.wav,,,1,rating_t_final.csv,t,final,,,,,0,0,0,0,0,0,0,1,0,9,9,9,,,,,,7,2.237,116,001,2019_Mar_18_1414,test_run,3.0.6,60.024209202200005,
12,TTF,TTF_12_smet_070319.wav,,,1,rating_t_final.csv,t,final,,,,,0,0,0,0,0,0,0,1,0,10,10,11,,,,,,7,1.154,116,001,2019_Mar_18_1414,test_run,3.0.6,60.024209202200005,
15,TTF,TTF_15_not_070319.wav,,,1,rating_t_final.csv,t,final,,,,,0,0,0,0,0,0,0,1,0,11,11,14,,,,,,6,1.603,116,001,2019_Mar_18_1414,test_run,3.0.6,60.024209202200005,
20,TDF,TDF_20_god_070319.wav,,,1,rating_t_final.csv,t,final,,,,,0,0,0,0,0,0,0,1,0,12,12,19,,,,,,4,3.053,116,001,2019_Mar_18_1414,test_run,3.0.6,60.024209202200005,
8,TTF,TTF_8_noet_070319.wav,,,1,rating_t_final.csv,t,final,,,,,0,0,0,0,0,0,0,1,0,13,13,7,,,,,,7,2.004,116,001,2019_Mar_18_1414,test_run,3.0.6,60.024209202200005,
25,TDF,TDF_25_synd_070319.wav,,,1,rating_t_final.csv,t,final,,,,,0,0,0,0,0,0,0,1,0,14,14,24,,,,,,4,5.886,116,001,2019_Mar_18_1414,test_run,3.0.6,60.024209202200005,
17,TDF,TDF_17_sked_070319.wav,,,1,rating_t_final.csv,t,final,,,,,0,0,0,0,0,0,0,1,0,15,15,16,,,,,,3,2.12,116,001,2019_Mar_18_1414,test_run,3.0.6,60.024209202200005,
21,TDF,TDF_21_ljod _070319.wav,,,1,rating_t_final.csv,t,final,,,,,0,0,0,0,0,0,0,1,0,16,16,20,,,,,,3,3.388,116,001,2019_Mar_18_1414,test_run,3.0.6,60.024209202200005,
23,TDF,TDF_23_hud_070319.wav,,,1,rating_t_final.csv,t,final,,,,,0,0,0,0,0,0,0,1,0,17,17,22,,,,,,2,1.738,116,001,2019_Mar_18_1414,test_run,3.0.6,60.024209202200005,
28,TDF,TDF_28_brand_070319.wav,,,1,rating_t_final.csv,t,final,,,,,0,0,0,0,0,0,0,1,0,18,18,27,,,,,,3,6.254,116,001,2019_Mar_18_1414,test_run,3.0.6,60.024209202200005,
31,TDF,TDF_31_brodd_070319.wav,,,1,rating_t_final.csv,t,final,,,,,0,0,0,0,0,0,0,1,0,19,19,30,,,,,,7,1.687,116,001,2019_Mar_18_1414,test_run,3.0.6,60.024209202200005,
18,TDF,TDF_18_sjud_070319.wav,,,1,rating_t_final.csv,t,final,,,,,0,0,0,0,0,0,0,1,0,20,20,17,,,,,,3,2.77,116,001,2019_Mar_18_1414,test_run,3.0.6,60.024209202200005,
13,TTF,TTF_13_gjut_070319.wav,,,1,rating_t_final.csv,t,final,,,,,0,0,0,0,0,0,0,1,0,21,21,12,,,,,,5,3.753,116,001,2019_Mar_18_1414,test_run,3.0.6,60.024209202200005,
4,TTF,TTF_4_roet_070319.wav,,,1,rating_t_final.csv,t,final,,,,,0,0,0,0,0,0,0,1,0,22,22,3,,,,,,6,3.104,116,001,2019_Mar_18_1414,test_run,3.0.6,60.024209202200005,
32,TDF,TDF_32_hoard_070319.wav,,,1,rating_t_final.csv,t,final,,,,,0,0,0,0,0,0,0,1,0,23,23,31,,,,,,3,2.22,116,001,2019_Mar_18_1414,test_run,3.0.6,60.024209202200005,
14,TTF,TTF_14_mot_070319.wav,,,1,rating_t_final.csv,t,final,,,,,0,0,0,0,0,0,0,1,0,24,24,13,,,,,,7,2.304,116,001,2019_Mar_18_1414,test_run,3.0.6,60.024209202200005,
1,TTF,TTF_1_rit_070319.wav,,,1,rating_t_final.csv,t,final,,,,,0,0,0,0,0,0,0,1,0,25,25,0,,,,,,7,1.754,116,001,2019_Mar_18_1414,test_run,3.0.6,60.024209202200005,
26,TDF,TDF_26_rymd_070319.wav,,,1,rating_t_final.csv,t,final,,,,,0,0,0,0,0,0,0,1,0,26,26,25,,,,,,3,2.738,116,001,2019_Mar_18_1414,test_run,3.0.6,60.024209202200005,
24,TDF,TDF_24_smid_070319.wav,,,1,rating_t_final.csv,t,final,,,,,0,0,0,0,0,0,0,1,0,27,27,23,,,,,,2,2.137,116,001,2019_Mar_18_1414,test_run,3.0.6,60.024209202200005,
16,TTF,TTF_16_font_070319.wav,,,1,rating_t_final.csv,t,final,,,,,0,0,0,0,0,0,0,1,0,28,28,15,,,,,,5,3.937,116,001,2019_Mar_18_1414,test_run,3.0.6,60.024209202200005,
29,TDF,TDF_29_baadd_070319.wav,,,1,rating_t_final.csv,t,final,,,,,0,0,0,0,0,0,0,1,0,29,29,28,,,,,,5,5.621,116,001,2019_Mar_18_1414,test_run,3.0.6,60.024209202200005,
30,TDF,TDF_30_sladd_070319.wav,,,1,rating_t_final.csv,t,final,,,,,0,0,0,0,0,0,0,1,0,30,30,29,,,,,,3,2.22,116,001,2019_Mar_18_1414,test_run,3.0.6,60.024209202200005,
9,TTF,TTF_9_bot_070319.wav,,,1,rating_t_final.csv,t,final,,,,,0,0,0,0,0,0,0,1,0,31,31,8,,,,,,4,3.22,116,001,2019_Mar_18_1414,test_run,3.0.6,60.024209202200005,
3,TDF,TDF_3_raad_070319.wav,,,1,rating_d_final.csv,d,final,,,,,0,0,0,0,0,1,1,0,0,0,0,2,,,,,,4,2.587,116,001,2019_Mar_18_1414,test_run,3.0.6,60.024209202200005,
13,TDF,TDF_13_ljud_070319.wav,,,1,rating_d_final.csv,d,final,,,,,0,0,0,0,0,1,1,0,0,1,1,12,,,,,,6,4.087,116,001,2019_Mar_18_1414,test_run,3.0.6,60.024209202200005,
5,TDF,TDF_5_voad_070319.wav,,,1,rating_d_final.csv,d,final,,,,,0,0,0,0,0,1,1,0,0,2,2,4,,,,,,6,1.837,116,001,2019_Mar_18_1414,test_run,3.0.6,60.024209202200005,
4,TDF,TDF_4_rod_070319.wav,,,1,rating_d_final.csv,d,final,,,,,0,0,0,0,0,1,1,0,0,3,3,3,,,,,,6,5.004,116,001,2019_Mar_18_1414,test_run,3.0.6,60.024209202200005,
2,TDF,TDF_2_ved_070319.wav,,,1,rating_d_final.csv,d,final,,,,,0,0,0,0,0,1,1,0,0,4,4,1,,,,,,7,1.037,116,001,2019_Mar_18_1414,test_run,3.0.6,60.024209202200005,
23,TTF,TTF_23_hut_070319.wav,,,1,rating_d_final.csv,d,final,,,,,0,0,0,0,0,1,1,0,0,5,5,22,,,,,,3,2.154,116,001,2019_Mar_18_1414,test_run,3.0.6,60.024209202200005,
12,TDF,TDF_12_smed_070319.wav,,,1,rating_d_final.csv,d,final,,,,,0,0,0,0,0,1,1,0,0,6,6,11,,,,,,6,1.271,116,001,2019_Mar_18_1414,test_run,3.0.6,60.024209202200005,
27,TTF,TTF_27_sant_070319.wav,,,1,rating_d_final.csv,d,final,,,,,0,0,0,0,0,1,1,0,0,7,7,26,,,,,,2,1.587,116,001,2019_Mar_18_1414,test_run,3.0.6,60.024209202200005,
26,TTF,TTF_26_rymt_070319.wav,,,1,rating_d_final.csv,d,final,,,,,0,0,0,0,0,1,1,0,0,8,8,25,,,,,,2,1.653,116,001,2019_Mar_18_1414,test_run,3.0.6,60.024209202200005,
7,TDF,TDF_7_vid_070319.wav,,,1,rating_d_final.csv,d,final,,,,,0,0,0,0,0,1,1,0,0,9,9,6,,,,,,4,2.02,116,001,2019_Mar_18_1414,test_run,3.0.6,60.024209202200005,
21,TTF,TTF_21_gjoet_070319.wav,,,1,rating_d_final.csv,d,final,,,,,0,0,0,0,0,1,1,0,0,10,10,20,,,,,,2,2.02,116,001,2019_Mar_18_1414,test_run,3.0.6,60.024209202200005,
28,TTF,TTF_28_brant_070319.wav,,,1,rating_d_final.csv,d,final,,,,,0,0,0,0,0,1,1,0,0,11,11,27,,,,,,2,1.321,116,001,2019_Mar_18_1414,test_run,3.0.6,60.024209202200005,
31,TTF,TTF_31_brott_070319.wav,,,1,rating_d_final.csv,d,final,,,,,0,0,0,0,0,1,1,0,0,12,12,30,,,,,,1,1.137,116,001,2019_Mar_18_1414,test_run,3.0.6,60.024209202200005,
6,TDF,TDF_6_voard_070319.wav,,,1,rating_d_final.csv,d,final,,,,,0,0,0,0,0,1,1,0,0,13,13,5,,,,,,5,2.871,116,001,2019_Mar_18_1414,test_run,3.0.6,60.024209202200005,
18,TTF,TTF_18_skjut_070319.wav,,,1,rating_d_final.csv,d,final,,,,,0,0,0,0,0,1,1,0,0,14,14,17,,,,,,2,2.154,116,001,2019_Mar_18_1414,test_run,3.0.6,60.024209202200005,
1,TDF,TDF_1_rid_070319.wav,,,1,rating_d_final.csv,d,final,,,,,0,0,0,0,0,1,1,0,0,15,15,0,,,,,,5,2.687,116,001,2019_Mar_18_1414,test_run,3.0.6,60.024209202200005,
14,TDF,TDF_14_mod_070319.wav,,,1,rating_d_final.csv,d,final,,,,,0,0,0,0,0,1,1,0,0,16,16,13,,,,,,4,2.071,116,001,2019_Mar_18_1414,test_run,3.0.6,60.024209202200005,
9,TDF,TDF_9_bod_070319.wav,,,1,rating_d_final.csv,d,final,,,,,0,0,0,0,0,1,1,0,0,17,17,8,,,,,,3,2.037,116,001,2019_Mar_18_1414,test_run,3.0.6,60.024209202200005,
22,TTF,TTF_22_het_070319.wav,,,1,rating_d_final.csv,d,final,,,,,0,0,0,0,0,1,1,0,0,18,18,21,,,,,,1,2.037,116,001,2019_Mar_18_1414,test_run,3.0.6,60.024209202200005,
15,TDF,TDF_15_nod_070319.wav,,,1,rating_d_final.csv,d,final,,,,,0,0,0,0,0,1,1,0,0,19,19,14,,,,,,6,3.37,116,001,2019_Mar_18_1414,test_run,3.0.6,60.024209202200005,
17,TTF,TTF_17_sket_070319.wav,,,1,rating_d_final.csv,d,final,,,,,0,0,0,0,0,1,1,0,0,20,20,16,,,,,,1,1.871,116,001,2019_Mar_18_1414,test_run,3.0.6,60.024209202200005,
8,TDF,TDF_8_nod_070319.wav,,,1,rating_d_final.csv,d,final,,,,,0,0,0,0,0,1,1,0,0,21,21,7,,,,,,6,2.37,116,001,2019_Mar_18_1414,test_run,3.0.6,60.024209202200005,
30,TTF,TTF_30_slatt_070319.wav,,,1,rating_d_final.csv,d,final,,,,,0,0,0,0,0,1,1,0,0,22,22,29,,,,,,1,1.386,116,001,2019_Mar_18_1414,test_run,3.0.6,60.024209202200005,
19,TTF,TTF_19_skoet_070319.wav,,,1,rating_d_final.csv,d,final,,,,,0,0,0,0,0,1,1,0,0,23,23,18,,,,,,2,3.536,116,001,2019_Mar_18_1414,test_run,3.0.6,60.024209202200005,
32,TTF,TTF_32_hoart_070319.wav,,,1,rating_d_final.csv,d,final,,,,,0,0,0,0,0,1,1,0,0,24,24,31,,,,,,2,2.637,116,001,2019_Mar_18_1414,test_run,3.0.6,60.024209202200005,
29,TTF,TTF_29_bett_070319.wav,,,1,rating_d_final.csv,d,final,,,,,0,0,0,0,0,1,1,0,0,25,25,28,,,,,,1,1.354,116,001,2019_Mar_18_1414,test_run,3.0.6,60.024209202200005,
10,TDF,TDF_10_brod_070319.wav,,,1,rating_d_final.csv,d,final,,,,,0,0,0,0,0,1,1,0,0,26,26,9,,,,,,6,1.253,116,001,2019_Mar_18_1414,test_run,3.0.6,60.024209202200005,
25,TTF,TTF_25_synt_070319.wav,,,1,rating_d_final.csv,d,final,,,,,0,0,0,0,0,1,1,0,0,27,27,24,,,,,,3,2.604,116,001,2019_Mar_18_1414,test_run,3.0.6,60.024209202200005,
16,TDF,TDF_16_fond_070319.wav,,,1,rating_d_final.csv,d,final,,,,,0,0,0,0,0,1,1,0,0,28,28,15,,,,,,6,2.904,116,001,2019_Mar_18_1414,test_run,3.0.6,60.024209202200005,
11,TDF,TDF_11_svid_070319.wav,,,1,rating_d_final.csv,d,final,,,,,0,0,0,0,0,1,1,0,0,29,29,10,,,,,,6,2.253,116,001,2019_Mar_18_1414,test_run,3.0.6,60.024209202200005,
24,TTF,TTF_24_smit_070319.wav,,,1,rating_d_final.csv,d,final,,,,,0,0,0,0,0,1,1,0,0,30,30,23,,,,,,3,3.487,116,001,2019_Mar_18_1414,test_run,3.0.6,60.024209202200005,
20,TTF,TTF_20_got_070319.wav,,,1,rating_d_final.csv,d,final,,,,,0,0,0,0,0,1,1,0,0,31,31,19,,,,,,4,3.42,116,001,2019_Mar_18_1414,test_run,3.0.6,60.024209202200005,
11,TDI,TDI_11_dipp_150219.wav,,,2,rating_d_initial.csv,d,initial,,,,,0,1,1,1,0,0,0,0,0,0,0,10,,,,,,7,3.02,116,001,2019_Mar_18_1414,test_run,3.0.6,60.024209202200005,
25,TTI,TTI_25_taar_150219.wav,,,2,rating_d_initial.csv,d,initial,,,,,0,1,1,1,0,0,0,0,0,1,1,24,,,,,,7,1.455,116,001,2019_Mar_18_1414,test_run,3.0.6,60.024209202200005,
13,TDI,TDI_13_dog_150219.wav,,,2,rating_d_initial.csv,d,initial,,,,,0,1,1,1,0,0,0,0,0,2,2,12,,,,,,6,1.555,116,001,2019_Mar_18_1414,test_run,3.0.6,60.024209202200005,
9,TDI,TDI_9_dill_150219.wav,,,2,rating_d_initial.csv,d,initial,,,,,0,1,1,1,0,0,0,0,0,3,3,8,,,,,,7,1.754,116,001,2019_Mar_18_1414,test_run,3.0.6,60.024209202200005,
12,TDI,TDI_12_doa_150219.wav,,,2,rating_d_initial.csv,d,initial,,,,,0,1,1,1,0,0,0,0,0,4,4,11,,,,,,6,1.836,116,001,2019_Mar_18_1414,test_run,3.0.6,60.024209202200005,
23,TTI,TTI_23_toa_150219.wav,,,2,rating_d_initial.csv,d,initial,,,,,0,1,1,1,0,0,0,0,0,5,5,22,,,,,,6,1.537,116,001,2019_Mar_18_1414,test_run,3.0.6,60.024209202200005,
18,TTI,TTI_18_tum_150219.wav,,,2,rating_d_initial.csv,d,initial,,,,,0,1,1,1,0,0,0,0,0,6,6,17,,,,,,5,1.238,116,001,2019_Mar_18_1414,test_run,3.0.6,60.024209202200005,
19,TTI,TTI_19_tun_150219.wav,,,2,rating_d_initial.csv,d,initial,,,,,0,1,1,1,0,0,0,0,0,7,7,18,,,,,,6,3.487,116,001,2019_Mar_18_1414,test_run,3.0.6,60.024209202200005,
26,TTI,TTI_26_toe_150219.wav,,,2,rating_d_initial.csv,d,initial,,,,,0,1,1,1,0,0,0,0,0,8,8,25,,,,,,6,3.921,116,001,2019_Mar_18_1414,test_run,3.0.6,60.024209202200005,
7,TDI,TDI_7_den_150219.wav,,,2,rating_d_initial.csv,d,initial,,,,,0,1,1,1,0,0,0,0,0,9,9,6,,,,,,7,1.635,116,001,2019_Mar_18_1414,test_run,3.0.6,60.024209202200005,
10,TDI,TDI_10_ditt_150219.wav,,,2,rating_d_initial.csv,d,initial,,,,,0,1,1,1,0,0,0,0,0,10,10,9,,,,,,7,2.737,116,001,2019_Mar_18_1414,test_run,3.0.6,60.024209202200005,
20,TTI,TTI_20_tur_150219.wav,,,2,rating_d_initial.csv,d,initial,,,,,0,1,1,1,0,0,0,0,0,11,11,19,,,,,,5,1.453,116,001,2019_Mar_18_1414,test_run,3.0.6,60.024209202200005,
16,TTI,TTI_16_ton_150219.wav,,,2,rating_d_initial.csv,d,initial,,,,,0,1,1,1,0,0,0,0,0,12,12,15,,,,,,4,4.204,116,001,2019_Mar_18_1414,test_run,3.0.6,60.024209202200005,
6,TDI,TDI_6_deg_150219.wav,,,2,rating_d_initial.csv,d,initial,,,,,0,1,1,1,0,0,0,0,0,13,13,5,,,,,,5,1.922,116,001,2019_Mar_18_1414,test_run,3.0.6,60.024209202200005,
27,TTI,TTI_27_toem_150219.wav,,,2,rating_d_initial.csv,d,initial,,,,,0,1,1,1,0,0,0,0,0,14,14,26,,,,,,3,2.504,116,001,2019_Mar_18_1414,test_run,3.0.6,60.024209202200005,
14,TDI,TDI_14_dok_150219.wav,,,2,rating_d_initial.csv,d,initial,,,,,0,1,1,1,0,0,0,0,0,15,15,13,,,,,,5,2.521,116,001,2019_Mar_18_1414,test_run,3.0.6,60.024209202200005,
5,TDI,TDI_5_dass_150219.wav,,,2,rating_d_initial.csv,d,initial,,,,,0,1,1,1,0,0,0,0,0,16,16,4,,,,,,7,2.987,116,001,2019_Mar_18_1414,test_run,3.0.6,60.024209202200005,
17,TTI,TTI_17_topp_150219.wav,,,2,rating_d_initial.csv,d,initial,,,,,0,1,1,1,0,0,0,0,0,17,17,16,,,,,,3,1.754,116,001,2019_Mar_18_1414,test_run,3.0.6,60.024209202200005,
15,TTI,TTI_15_tom_150219.wav,,,2,rating_d_initial.csv,d,initial,,,,,0,1,1,1,0,0,0,0,0,18,18,14,,,,,,2,2.103,116,001,2019_Mar_18_1414,test_run,3.0.6,60.024209202200005,
24,TTI,TTI_24_taack_150219.wav,,,2,rating_d_initial.csv,d,initial,,,,,0,1,1,1,0,0,0,0,0,19,19,23,,,,,,5,4.371,116,001,2019_Mar_18_1414,test_run,3.0.6,60.024209202200005,
8,TDI,TDI_8_dia_150219.wav,,,2,rating_d_initial.csv,d,initial,,,,,0,1,1,1,0,0,0,0,0,20,20,7,,,,,,7,2.053,116,001,2019_Mar_18_1414,test_run,3.0.6,60.024209202200005,
22,TTI,TTI_22_ty_150219.wav,,,2,rating_d_initial.csv,d,initial,,,,,0,1,1,1,0,0,0,0,0,21,21,21,,,,,,6,2.071,116,001,2019_Mar_18_1414,test_run,3.0.6,60.024209202200005,
1,TDI,TDI_1_dag_150219.wav,,,2,rating_d_initial.csv,d,initial,,,,,0,1,1,1,0,0,0,0,0,22,22,0,,,,,,7,2.221,116,001,2019_Mar_18_1414,test_run,3.0.6,60.024209202200005,
3,TDI,TDI_3_dal_150219.wav,,,2,rating_d_initial.csv,d,initial,,,,,0,1,1,1,0,0,0,0,0,23,23,2,,,,,,7,1.886,116,001,2019_Mar_18_1414,test_run,3.0.6,60.024209202200005,
2,TDI,TDI_2_dagg_150219.wav,,,2,rating_d_initial.csv,d,initial,,,,,0,1,1,1,0,0,0,0,0,24,24,1,,,,,,5,3.703,116,001,2019_Mar_18_1414,test_run,3.0.6,60.024209202200005,
21,TTI,TTI_21_tugg_150219.wav,,,2,rating_d_initial.csv,d,initial,,,,,0,1,1,1,0,0,0,0,0,25,25,20,,,,,,3,2.104,116,001,2019_Mar_18_1414,test_run,3.0.6,60.024209202200005,
4,TDI,TDI_4_dam_150219.wav,,,2,rating_d_initial.csv,d,initial,,,,,0,1,1,1,0,0,0,0,0,26,26,3,,,,,,6,2.938,116,001,2019_Mar_18_1414,test_run,3.0.6,60.024209202200005,
23,TDI,TDI_23_doa_150219.wav,,,2,rating_t_initial.csv,t,initial,,,,,0,1,1,1,0,1,1,1,0,0,0,22,,,,,,3,2.603,116,001,2019_Mar_18_1414,test_run,3.0.6,60.024209202200005,
4,TTI,TTI_4_tam_150219.wav,,,2,rating_t_initial.csv,t,initial,,,,,0,1,1,1,0,1,1,1,0,1,1,3,,,,,,4,1.854,116,001,2019_Mar_18_1414,test_run,3.0.6,60.024209202200005,
5,TTI,TTI_5_tass_150219.wav,,,2,rating_t_initial.csv,t,initial,,,,,0,1,1,1,0,1,1,1,0,2,2,4,,,,,,1,11.27,116,001,2019_Mar_18_1414,test_run,3.0.6,60.024209202200005,
3,TTI,TTI_3_tal_150219.wav,,,2,rating_t_initial.csv,t,initial,,,,,0,1,1,1,0,1,1,1,0,3,3,2,,,,,,5,2.621,116,001,2019_Mar_18_1414,test_run,3.0.6,60.024209202200005,
19,TDI,TDI_19_dun_150219.wav,,,2,rating_t_initial.csv,t,initial,,,,,0,1,1,1,0,1,1,1,0,4,4,18,,,,,,2,3.755,116,001,2019_Mar_18_1414,test_run,3.0.6,60.024209202200005,
15,TDI,TDI_15_dom_150219.wav,,,2,rating_t_initial.csv,t,initial,,,,,0,1,1,1,0,1,1,1,0,5,5,14,,,,,,2,2.304,116,001,2019_Mar_18_1414,test_run,3.0.6,60.024209202200005,
24,TDI,TDI_24_daack_150219.wav,,,2,rating_t_initial.csv,t,initial,,,,,0,1,1,1,0,1,1,1,0,6,6,23,,,,,,1,10.704,116,001,2019_Mar_18_1414,test_run,3.0.6,60.024209202200005,
9,TTI,TTI_9_till_150219.wav,,,2,rating_t_initial.csv,t,initial,,,,,0,1,1,1,0,1,1,1,0,7,7,8,,,,,,4,2.004,116,001,2019_Mar_18_1414,test_run,3.0.6,60.024209202200005,
1,TTI,TTI_1_tag_150219.wav,,,2,rating_t_initial.csv,t,initial,,,,,0,1,1,1,0,1,1,1,0,8,8,0,,,,,,5,1.953,116,001,2019_Mar_18_1414,test_run,3.0.6,60.024209202200005,
13,TTI,TTI_13_tog_150219.wav,,,2,rating_t_initial.csv,t,initial,,,,,0,1,1,1,0,1,1,1,0,9,9,12,,,,,,5,1.487,116,001,2019_Mar_18_1414,test_run,3.0.6,60.024209202200005,
22,TDI,TDI_22_dy_150219.wav,,,2,rating_t_initial.csv,t,initial,,,,,0,1,1,1,0,1,1,1,0,10,10,21,,,,,,3,2.12,116,001,2019_Mar_18_1414,test_run,3.0.6,60.024209202200005,
6,TTI,TTI_6_teg_150219.wav,,,2,rating_t_initial.csv,t,initial,,,,,0,1,1,1,0,1,1,1,0,11,11,5,,,,,,3,2.07,116,001,2019_Mar_18_1414,test_run,3.0.6,60.024209202200005,
8,TTI,TTI_8_tia_150219.wav,,,2,rating_t_initial.csv,t,initial,,,,,0,1,1,1,0,1,1,1,0,12,12,7,,,,,,5,2.588,116,001,2019_Mar_18_1414,test_run,3.0.6,60.024209202200005,
11,TTI,TTI_11_tipp_150219.wav,,,2,rating_t_initial.csv,t,initial,,,,,0,1,1,1,0,1,1,1,0,13,13,10,,,,,,6,1.788,116,001,2019_Mar_18_1414,test_run,3.0.6,60.024209202200005,
21,TDI,TDI_21_dugg_150219.wav,,,2,rating_t_initial.csv,t,initial,,,,,0,1,1,1,0,1,1,1,0,14,14,20,,,,,,3,3.321,116,001,2019_Mar_18_1414,test_run,3.0.6,60.024209202200005,
10,TTI,TTI_10_titt_150219.wav,,,2,rating_t_initial.csv,t,initial,,,,,0,1,1,1,0,1,1,1,0,15,15,9,,,,,,3,4.42,116,001,2019_Mar_18_1414,test_run,3.0.6,60.024209202200005,
2,TTI,TTI_2_tagg_150219.wav,,,2,rating_t_initial.csv,t,initial,,,,,0,1,1,1,0,1,1,1,0,16,16,1,,,,,,2,3.321,116,001,2019_Mar_18_1414,test_run,3.0.6,60.024209202200005,
12,TTI,TTI_12_toa_150219.wav,,,2,rating_t_initial.csv,t,initial,,,,,0,1,1,1,0,1,1,1,0,17,17,11,,,,,,3,4.12,116,001,2019_Mar_18_1414,test_run,3.0.6,60.024209202200005,
18,TDI,TDI_18_dum_150219.wav,,,2,rating_t_initial.csv,t,initial,,,,,0,1,1,1,0,1,1,1,0,18,18,17,,,,,,2,5.22,116,001,2019_Mar_18_1414,test_run,3.0.6,60.024209202200005,
14,TTI,TTI_14_tok_150219.wav,,,2,rating_t_initial.csv,t,initial,,,,,0,1,1,1,0,1,1,1,0,19,19,13,,,,,,5,4.154,116,001,2019_Mar_18_1414,test_run,3.0.6,60.024209202200005,
7,TTI,TTI_7_tenn_150219.wav,,,2,rating_t_initial.csv,t,initial,,,,,0,1,1,1,0,1,1,1,0,20,20,6,,,,,,2,4.487,116,001,2019_Mar_18_1414,test_run,3.0.6,60.024209202200005,
16,TDI,TDI_16_don_150219.wav,,,2,rating_t_initial.csv,t,initial,,,,,0,1,1,1,0,1,1,1,0,21,21,15,,,,,,3,3.287,116,001,2019_Mar_18_1414,test_run,3.0.6,60.024209202200005,
20,TDI,TDI_20_dur_150219.wav,,,2,rating_t_initial.csv,t,initial,,,,,0,1,1,1,0,1,1,1,0,22,22,19,,,,,,1,1.77,116,001,2019_Mar_18_1414,test_run,3.0.6,60.024209202200005,
26,TDI,TDI_26_doe_150219.wav,,,2,rating_t_initial.csv,t,initial,,,,,0,1,1,1,0,1,1,1,0,23,23,25,,,,,,1,6.002,116,001,2019_Mar_18_1414,test_run,3.0.6,60.024209202200005,
25,TDI,TDI_25_daar_150219.wav,,,2,rating_t_initial.csv,t,initial,,,,,0,1,1,1,0,1,1,1,0,24,24,24,,,,,,1,1.236,116,001,2019_Mar_18_1414,test_run,3.0.6,60.024209202200005,
17,TDI,TDI_17_dopp_150219.wav,,,2,rating_t_initial.csv,t,initial,,,,,0,1,1,1,0,1,1,1,0,25,25,16,,,,,,2,1.937,116,001,2019_Mar_18_1414,test_run,3.0.6,60.024209202200005,
27,TDI,TDI_27_doem_edit_150219.wav,,,2,rating_t_initial.csv,t,initial,,,,,0,1,1,1,0,1,1,1,0,26,26,26,,,,,,3,3.919,116,001,2019_Mar_18_1414,test_run,3.0.6,60.024209202200005,
