item,item_cond,sound,corr_ans,group,block_id,listname,rating_for,position,trials.thisRepN,trials.thisTrialN,trials.thisN,trials.thisIndex,run_block_type.thisRepN,run_block_type.thisTrialN,run_block_type.thisN,run_block_type.thisIndex,routine.thisRepN,routine.thisTrialN,routine.thisN,routine.thisIndex,rating_trials.thisRepN,rating_trials.thisTrialN,rating_trials.thisN,rating_trials.thisIndex,key_resp_1.keys,key_resp_1.rt,key_resp_2.keys,key_resp_2.corr,key_resp_2.rt,rating_1.response,rating_1.rt,participant,session,date,expName,psychopyVersion,frameRate,
,,,,,,,,,,,,,,,,,,,,,,,,,right,11.469066602003295,,,,,,117,001,2019_Mar_18_1446,test_run,3.0.6,60.003646897846714,
84,EFW,EFW_54_romaner_070319.wav,j,t,,,,,0,0,0,83,,,,,,,,,,,,,,,j,1,1.1529219800140709,,,117,001,2019_Mar_18_1446,test_run,3.0.6,60.003646897846714,
146,ENW,ENW_56_lysskarna_150219.wav,n,t,,,,,0,1,1,145,,,,,,,,,,,,,,,n,1,0.26900639600353315,,,117,001,2019_Mar_18_1446,test_run,3.0.6,60.003646897846714,
126,ENW,ENW_36_skymlosa_150219.wav,n,t,,,,,0,2,2,125,,,,,,,,,,,,,,,n,1,3.502729300002102,,,117,001,2019_Mar_18_1446,test_run,3.0.6,60.003646897846714,
30,ETW,ETW_30_oeverlevnad_070319.wav,j,t,,,,,0,3,3,29,,,,,,,,,,,,,,,j,1,0.4854364969942253,,,117,001,2019_Mar_18_1446,test_run,3.0.6,60.003646897846714,
69,EFW,EFW_39_foersvara_070319.wav,j,t,,,,,0,4,4,68,,,,,,,,,,,,,,,j,1,4.118721284001367,,,117,001,2019_Mar_18_1446,test_run,3.0.6,60.003646897846714,
64,EFW,EFW_34_sommar_070319.wav,j,t,,,,,0,5,5,63,,,,,,,,,,,,,,,j,1,1.11898752299021,,,117,001,2019_Mar_18_1446,test_run,3.0.6,60.003646897846714,
102,ENW,ENW_12_snälmola_150219.wav,n,t,,,,,0,6,6,101,,,,,,,,,,,,,,,n,1,0.6354639669880271,,,117,001,2019_Mar_18_1446,test_run,3.0.6,60.003646897846714,
68,EFW,EFW_38_foerefoell_070319.wav,j,t,,,,,0,7,7,67,,,,,,,,,,,,,,,j,1,0.5357289480161853,,,117,001,2019_Mar_18_1446,test_run,3.0.6,60.003646897846714,
9,ETW,ETW_9_haarmed_070319.wav,j,t,,,,,0,8,8,8,,,,,,,,,,,,,,,j,1,0.4694668269949034,,,117,001,2019_Mar_18_1446,test_run,3.0.6,60.003646897846714,
136,ENW,ENW_46_pommera_150219.wav,n,t,,,,,0,9,9,135,,,,,,,,,,,,,,,n,1,1.8021264859999064,,,117,001,2019_Mar_18_1446,test_run,3.0.6,60.003646897846714,
53,EFW,EFW_23_aamne_070319.wav,j,t,,,,,0,10,10,52,,,,,,,,,,,,,,,j,1,3.169099307997385,,,117,001,2019_Mar_18_1446,test_run,3.0.6,60.003646897846714,
163,ENW,ENW_73_vimmankalla_150219.wav,n,t,,,,,0,11,11,162,,,,,,,,,,,,,,,n,1,1.7338537860196084,,,117,001,2019_Mar_18_1446,test_run,3.0.6,60.003646897846714,
131,ENW,ENW_41_vessmaren_150219.wav,n,t,,,,,0,12,12,130,,,,,,,,,,,,,,,n,1,0.6336613559979014,,,117,001,2019_Mar_18_1446,test_run,3.0.6,60.003646897846714,
98,ENW,ENW_8_haväras_150219.wav,n,t,,,,,0,13,13,97,,,,,,,,,,,,,,,n,1,2.083906318002846,,,117,001,2019_Mar_18_1446,test_run,3.0.6,60.003646897846714,
32,EFW,EFW_2_snarare_070319.wav,j,t,,,,,0,14,14,31,,,,,,,,,,,,,,,j,1,0.4690416810044553,,,117,001,2019_Mar_18_1446,test_run,3.0.6,60.003646897846714,
62,EFW,EFW_32_fyller_070319.wav,j,t,,,,,0,15,15,61,,,,,,,,,,,,,,,n,0,1.7522834189876448,,,117,001,2019_Mar_18_1446,test_run,3.0.6,60.003646897846714,
123,ENW,ENW_33_froamation_150219.wav,n,t,,,,,0,16,16,122,,,,,,,,,,,,,,,n,1,0.8527727480104659,,,117,001,2019_Mar_18_1446,test_run,3.0.6,60.003646897846714,
96,ENW,ENW_6_vilfroaser_150219.wav,n,t,,,,,0,17,17,95,,,,,,,,,,,,,,,n,1,0.6187462990055792,,,117,001,2019_Mar_18_1446,test_run,3.0.6,60.003646897846714,
60,EFW,EFW_30_officiella_070319.wav,j,t,,,,,0,18,18,59,,,,,,,,,,,,,,,j,1,0.635512237000512,,,117,001,2019_Mar_18_1446,test_run,3.0.6,60.003646897846714,
175,ENW,ENW_85_forlinna_150219.wav,n,t,,,,,0,19,19,174,,,,,,,,,,,,,,,n,1,0.8852411370025948,,,117,001,2019_Mar_18_1446,test_run,3.0.6,60.003646897846714,
73,EFW,EFW_43_halvoar_070319.wav,j,t,,,,,0,20,20,72,,,,,,,,,,,,,,,j,1,0.6192957419843879,,,117,001,2019_Mar_18_1446,test_run,3.0.6,60.003646897846714,
19,ETW,ETW_19_saallskapshund_070319.wav,j,t,,,,,0,21,21,18,,,,,,,,,,,,,,,j,1,1.0191306190099567,,,117,001,2019_Mar_18_1446,test_run,3.0.6,60.003646897846714,
160,ENW,ENW_70_roklarner_150219.wav,n,t,,,,,0,22,22,159,,,,,,,,,,,,,,,n,1,0.7194840100128204,,,117,001,2019_Mar_18_1446,test_run,3.0.6,60.003646897846714,
166,ENW,ENW_76_omfläskor_150219.wav,n,t,,,,,0,23,23,165,,,,,,,,,,,,,,,n,1,0.835506436007563,,,117,001,2019_Mar_18_1446,test_run,3.0.6,60.003646897846714,
118,ENW,ENW_28_läkermask_150219.wav,n,t,,,,,0,24,24,117,,,,,,,,,,,,,,,n,1,3.6360818459943403,,,117,001,2019_Mar_18_1446,test_run,3.0.6,60.003646897846714,
41,EFW,EFW_11_maanniskor_070319.wav,j,t,,,,,0,25,25,40,,,,,,,,,,,,,,,j,1,0.9193507739983033,,,117,001,2019_Mar_18_1446,test_run,3.0.6,60.003646897846714,
79,EFW,EFW_49_vaasen_070319.wav,j,t,,,,,0,26,26,78,,,,,,,,,,,,,,,j,1,0.819105621019844,,,117,001,2019_Mar_18_1446,test_run,3.0.6,60.003646897846714,
57,EFW,EFW_27_analysera_070319.wav,j,t,,,,,0,27,27,56,,,,,,,,,,,,,,,j,1,0.5527669339790009,,,117,001,2019_Mar_18_1446,test_run,3.0.6,60.003646897846714,
31,EFW,EFW_1_allmaan_070319.wav,j,t,,,,,0,28,28,30,,,,,,,,,,,,,,,j,1,0.5696417450089939,,,117,001,2019_Mar_18_1446,test_run,3.0.6,60.003646897846714,
127,ENW,ENW_37_spallrivet_150219.wav,n,t,,,,,0,29,29,126,,,,,,,,,,,,,,,n,1,0.6687476799997967,,,117,001,2019_Mar_18_1446,test_run,3.0.6,60.003646897846714,
169,ENW,ENW_79_lyxmare_150219.wav,n,t,,,,,0,30,30,168,,,,,,,,,,,,,,,n,1,0.7361927729798481,,,117,001,2019_Mar_18_1446,test_run,3.0.6,60.003646897846714,
2,ETW,ETW_2_skillnad_070319.wav,j,t,,,,,0,31,31,1,,,,,,,,,,,,,,,j,1,0.7695532639918383,,,117,001,2019_Mar_18_1446,test_run,3.0.6,60.003646897846714,
155,ENW,ENW_65_hamfylla_150219.wav,n,t,,,,,0,32,32,154,,,,,,,,,,,,,,,n,1,1.4690970099763945,,,117,001,2019_Mar_18_1446,test_run,3.0.6,60.003646897846714,
100,ENW,ENW_10_skinnamer_150219.wav,n,t,,,,,0,33,33,99,,,,,,,,,,,,,,,n,1,0.48578208600520156,,,117,001,2019_Mar_18_1446,test_run,3.0.6,60.003646897846714,
74,EFW,EFW_44_ljusa_070319.wav,j,t,,,,,0,34,34,73,,,,,,,,,,,,,,,j,1,0.7021910799958277,,,117,001,2019_Mar_18_1446,test_run,3.0.6,60.003646897846714,
142,ENW,ENW_52_filofyll_150219.wav,n,t,,,,,0,35,35,141,,,,,,,,,,,,,,,n,1,0.7026542850071564,,,117,001,2019_Mar_18_1446,test_run,3.0.6,60.003646897846714,
130,ENW,ENW_40_knipackar_150219.wav,n,t,,,,,0,36,36,129,,,,,,,,,,,,,,,n,1,1.1170156449952628,,,117,001,2019_Mar_18_1446,test_run,3.0.6,60.003646897846714,
42,EFW,EFW_12_foeremoal_070319.wav,j,t,,,,,0,37,37,41,,,,,,,,,,,,,,,j,1,0.5853605080046691,,,117,001,2019_Mar_18_1446,test_run,3.0.6,60.003646897846714,
173,ENW,ENW_83_fyrskovar_150219.wav,n,t,,,,,0,38,38,172,,,,,,,,,,,,,,,n,1,1.2524415850057267,,,117,001,2019_Mar_18_1446,test_run,3.0.6,60.003646897846714,
71,EFW,EFW_41_infinna_070319.wav,j,t,,,,,0,39,39,70,,,,,,,,,,,,,,,j,1,0.31912511397968046,,,117,001,2019_Mar_18_1446,test_run,3.0.6,60.003646897846714,
164,ENW,ENW_74_malsera_150219.wav,n,t,,,,,0,40,40,163,,,,,,,,,,,,,,,n,1,0.38618840600247495,,,117,001,2019_Mar_18_1446,test_run,3.0.6,60.003646897846714,
129,ENW,ENW_39_ljusonar_150219.wav,n,t,,,,,0,41,41,128,,,,,,,,,,,,,,,n,1,0.7838485559914261,,,117,001,2019_Mar_18_1446,test_run,3.0.6,60.003646897846714,
116,ENW,ENW_26_anufera_150219.wav,n,t,,,,,0,42,42,115,,,,,,,,,,,,,,,n,1,0.5021583529887721,,,117,001,2019_Mar_18_1446,test_run,3.0.6,60.003646897846714,
45,EFW,EFW_15_oeverens_070319.wav,j,t,,,,,0,43,43,44,,,,,,,,,,,,,,,j,1,0.6028071210021153,,,117,001,2019_Mar_18_1446,test_run,3.0.6,60.003646897846714,
14,ETW,ETW_14_myriad_070319.wav,j,t,,,,,0,44,44,13,,,,,,,,,,,,,,,j,1,0.5857126459886786,,,117,001,2019_Mar_18_1446,test_run,3.0.6,60.003646897846714,
179,ENW,ENW_89_mikenspoan_150219.wav,n,t,,,,,0,45,45,178,,,,,,,,,,,,,,,n,1,0.5024466649920214,,,117,001,2019_Mar_18_1446,test_run,3.0.6,60.003646897846714,
147,ENW,ENW_57_flovanning_150219.wav,n,t,,,,,0,46,46,146,,,,,,,,,,,,,,,n,1,0.36872594500891864,,,117,001,2019_Mar_18_1446,test_run,3.0.6,60.003646897846714,
109,ENW,ENW_19_morloren_150219.wav,n,t,,,,,0,47,47,108,,,,,,,,,,,,,,,n,1,0.4856926090142224,,,117,001,2019_Mar_18_1446,test_run,3.0.6,60.003646897846714,
80,EFW,EFW_50_snaalla_070319.wav,j,t,,,,,0,48,48,79,,,,,,,,,,,,,,,j,1,0.4857456430036109,,,117,001,2019_Mar_18_1446,test_run,3.0.6,60.003646897846714,
97,ENW,ENW_7_flasera_150219.wav,n,t,,,,,0,49,49,96,,,,,,,,,,,,,,,n,1,0.5685285479994491,,,117,001,2019_Mar_18_1446,test_run,3.0.6,60.003646897846714,
178,ENW,ENW_88_marsifen_150219.wav,n,t,,,,,0,50,50,177,,,,,,,,,,,,,,,n,1,0.36859720101347193,,,117,001,2019_Mar_18_1446,test_run,3.0.6,60.003646897846714,
21,ETW,ETW_21_marmelad_070319.wav,j,t,,,,,0,51,51,20,,,,,,,,,,,,,,,j,1,0.41922127999714576,,,117,001,2019_Mar_18_1446,test_run,3.0.6,60.003646897846714,
17,ETW,ETW_17_hemmavid_070319.wav,j,t,,,,,0,52,52,16,,,,,,,,,,,,,,,j,1,0.41877350900904275,,,117,001,2019_Mar_18_1446,test_run,3.0.6,60.003646897846714,
78,EFW,EFW_48_varifroan_070319.wav,j,t,,,,,0,53,53,77,,,,,,,,,,,,,,,j,1,0.5022443089983426,,,117,001,2019_Mar_18_1446,test_run,3.0.6,60.003646897846714,
93,ENW,ENW_3_vissorens_150219.wav,n,t,,,,,0,54,54,92,,,,,,,,,,,,,,,n,1,0.3690748510125559,,,117,001,2019_Mar_18_1446,test_run,3.0.6,60.003646897846714,
138,ENW,ENW_48_skyjamsen_150219.wav,n,t,,,,,0,55,55,137,,,,,,,,,,,,,,,n,1,0.4194083570037037,,,117,001,2019_Mar_18_1446,test_run,3.0.6,60.003646897846714,
94,ENW,ENW_4_kyllfaren_150219.wav,n,t,,,,,0,56,56,93,,,,,,,,,,,,,,,n,1,0.3861826160282362,,,117,001,2019_Mar_18_1446,test_run,3.0.6,60.003646897846714,
29,ETW,ETW_29_oeverhuvud_070319.wav,j,t,,,,,0,57,57,28,,,,,,,,,,,,,,,j,1,0.4022766709967982,,,117,001,2019_Mar_18_1446,test_run,3.0.6,60.003646897846714,
174,ENW,ENW_84_hurmarna_150219.wav,n,t,,,,,0,58,58,173,,,,,,,,,,,,,,,n,1,0.3524780090083368,,,117,001,2019_Mar_18_1446,test_run,3.0.6,60.003646897846714,
124,ENW,ENW_34_jomera_150219.wav,n,t,,,,,0,59,59,123,,,,,,,,,,,,,,,n,1,0.6351318590168376,,,117,001,2019_Mar_18_1446,test_run,3.0.6,60.003646897846714,
143,ENW,ENW_53_svarmvisso_150219.wav,n,t,,,,,0,60,60,142,,,,,,,,,,,,,,,n,1,0.5528107169957366,,,117,001,2019_Mar_18_1446,test_run,3.0.6,60.003646897846714,
107,ENW,ENW_17_kopynnor_150219.wav,n,t,,,,,0,61,61,106,,,,,,,,,,,,,,,n,1,0.919568735989742,,,117,001,2019_Mar_18_1446,test_run,3.0.6,60.003646897846714,
162,ENW,ENW_72_urskecken_150219.wav,n,t,,,,,0,62,62,161,,,,,,,,,,,,,,,n,1,1.369716481975047,,,117,001,2019_Mar_18_1446,test_run,3.0.6,60.003646897846714,
108,ENW,ENW_18_moalursena_150219.wav,n,t,,,,,0,63,63,107,,,,,,,,,,,,,,,n,1,0.8005453489895444,,,117,001,2019_Mar_18_1446,test_run,3.0.6,60.003646897846714,
180,ENW,ENW_90_skrivinar_150219.wav,n,t,,,,,0,64,64,179,,,,,,,,,,,,,,,n,1,0.4862555770087056,,,117,001,2019_Mar_18_1446,test_run,3.0.6,60.003646897846714,
59,EFW,EFW_29_formen_070319.wav,j,t,,,,,0,65,65,58,,,,,,,,,,,,,,,j,1,0.33626336097950116,,,117,001,2019_Mar_18_1446,test_run,3.0.6,60.003646897846714,
103,ENW,ENW_13_forvaron_150219.wav,n,t,,,,,0,66,66,102,,,,,,,,,,,,,,,n,1,0.2854302260093391,,,117,001,2019_Mar_18_1446,test_run,3.0.6,60.003646897846714,
90,EFW,EFW_60_insulin_070319.wav,j,t,,,,,0,67,67,89,,,,,,,,,,,,,,,j,1,0.4357250190223567,,,117,001,2019_Mar_18_1446,test_run,3.0.6,60.003646897846714,
43,EFW,EFW_13_elever_070319.wav,j,t,,,,,0,68,68,42,,,,,,,,,,,,,,,j,1,0.3359213919902686,,,117,001,2019_Mar_18_1446,test_run,3.0.6,60.003646897846714,
122,ENW,ENW_32_fonering_150219.wav,n,t,,,,,0,69,69,121,,,,,,,,,,,,,,,n,1,1.5024082550080493,,,117,001,2019_Mar_18_1446,test_run,3.0.6,60.003646897846714,
86,EFW,EFW_56_mormor_070319.wav,j,t,,,,,0,70,70,85,,,,,,,,,,,,,,,j,1,0.4353747259883676,,,117,001,2019_Mar_18_1446,test_run,3.0.6,60.003646897846714,
77,EFW,EFW_47_invoanare_070319.wav,j,t,,,,,0,71,71,76,,,,,,,,,,,,,,,j,1,0.7030803190136794,,,117,001,2019_Mar_18_1446,test_run,3.0.6,60.003646897846714,
61,EFW,EFW_31_jaamfoera_070319.wav,j,t,,,,,0,72,72,60,,,,,,,,,,,,,,,j,1,0.3690616200037766,,,117,001,2019_Mar_18_1446,test_run,3.0.6,60.003646897846714,
40,EFW,EFW_10_laarare_070319.wav,j,t,,,,,0,73,73,39,,,,,,,,,,,,,,,j,1,0.5860795830085408,,,117,001,2019_Mar_18_1446,test_run,3.0.6,60.003646897846714,
5,ETW,ETW_5_skepnad_070319.wav,j,t,,,,,0,74,74,4,,,,,,,,,,,,,,,j,1,0.45285380000132136,,,117,001,2019_Mar_18_1446,test_run,3.0.6,60.003646897846714,
55,EFW,EFW_25_informera_070319.wav,j,t,,,,,0,75,75,54,,,,,,,,,,,,,,,j,1,0.3689613020105753,,,117,001,2019_Mar_18_1446,test_run,3.0.6,60.003646897846714,
65,EFW,EFW_35_affaarer_070319.wav,j,t,,,,,0,76,76,64,,,,,,,,,,,,,,,j,1,0.6193232179793995,,,117,001,2019_Mar_18_1446,test_run,3.0.6,60.003646897846714,
172,ENW,ENW_82_värskappa_150219.wav,n,t,,,,,0,77,77,171,,,,,,,,,,,,,,,n,1,0.4190770160057582,,,117,001,2019_Mar_18_1446,test_run,3.0.6,60.003646897846714,
34,EFW,EFW_4_foerminska_070319.wav,j,t,,,,,0,78,78,33,,,,,,,,,,,,,,,j,1,0.6356114399968646,,,117,001,2019_Mar_18_1446,test_run,3.0.6,60.003646897846714,
152,ENW,ENW_62_ljullepilja_150219.wav,n,t,,,,,0,79,79,151,,,,,,,,,,,,,,,n,1,0.7029932540026493,,,117,001,2019_Mar_18_1446,test_run,3.0.6,60.003646897846714,
81,EFW,EFW_51_seminarier_070319.wav,j,t,,,,,0,80,80,80,,,,,,,,,,,,,,,j,1,0.6364304110174999,,,117,001,2019_Mar_18_1446,test_run,3.0.6,60.003646897846714,
35,EFW,EFW_5_samhaalle_070319.wav,j,t,,,,,0,81,81,34,,,,,,,,,,,,,,,j,1,0.7523406069958583,,,117,001,2019_Mar_18_1446,test_run,3.0.6,60.003646897846714,
54,EFW,EFW_24_foersvinner_070319.wav,j,t,,,,,0,82,82,53,,,,,,,,,,,,,,,j,1,0.46905411800253205,,,117,001,2019_Mar_18_1446,test_run,3.0.6,60.003646897846714,
150,ENW,ENW_60_lackpenar_150219.wav,n,t,,,,,0,83,83,149,,,,,,,,,,,,,,,n,1,0.7355461250117514,,,117,001,2019_Mar_18_1446,test_run,3.0.6,60.003646897846714,
6,ETW,ETW_6_vemod_070319.wav,j,t,,,,,0,84,84,5,,,,,,,,,,,,,,,j,1,0.6865614170092158,,,117,001,2019_Mar_18_1446,test_run,3.0.6,60.003646897846714,
106,ENW,ENW_16_rolinkar_150219.wav,n,t,,,,,0,85,85,105,,,,,,,,,,,,,,,n,1,0.3186835300002713,,,117,001,2019_Mar_18_1446,test_run,3.0.6,60.003646897846714,
140,ENW,ENW_50_omsänare_150219.wav,n,t,,,,,0,86,86,139,,,,,,,,,,,,,,,n,1,0.31883638401632197,,,117,001,2019_Mar_18_1446,test_run,3.0.6,60.003646897846714,
177,ENW,ENW_87_kloavare_150219.wav,n,t,,,,,0,87,87,176,,,,,,,,,,,,,,,n,1,0.41962920600781217,,,117,001,2019_Mar_18_1446,test_run,3.0.6,60.003646897846714,
37,EFW,EFW_7_sociala_070319.wav,j,t,,,,,0,88,88,36,,,,,,,,,,,,,,,j,1,0.4863586940045934,,,117,001,2019_Mar_18_1446,test_run,3.0.6,60.003646897846714,
156,ENW,ENW_66_voarsmenar_150219.wav,n,t,,,,,0,89,89,155,,,,,,,,,,,,,,,n,1,0.4862430570065044,,,117,001,2019_Mar_18_1446,test_run,3.0.6,60.003646897846714,
44,EFW,EFW_14_foersoeken_070319.wav,j,t,,,,,0,90,90,43,,,,,,,,,,,,,,,j,1,0.41884980601025745,,,117,001,2019_Mar_18_1446,test_run,3.0.6,60.003646897846714,
66,EFW,EFW_36_haarifroan_070319.wav,j,t,,,,,0,91,91,65,,,,,,,,,,,,,,,j,1,0.6521662989980541,,,117,001,2019_Mar_18_1446,test_run,3.0.6,60.003646897846714,
117,ENW,ENW_27_lyssvinner_150219.wav,n,t,,,,,0,92,92,116,,,,,,,,,,,,,,,n,1,0.4688246450095903,,,117,001,2019_Mar_18_1446,test_run,3.0.6,60.003646897846714,
15,ETW,ETW_15_knivsudd_070319.wav,j,t,,,,,0,93,93,14,,,,,,,,,,,,,,,j,1,0.8692419470171444,,,117,001,2019_Mar_18_1446,test_run,3.0.6,60.003646897846714,
33,EFW,EFW_3_familjen_070319.wav,j,t,,,,,0,94,94,32,,,,,,,,,,,,,,,j,1,1.5195761579961982,,,117,001,2019_Mar_18_1446,test_run,3.0.6,60.003646897846714,
148,ENW,ENW_58_malvossa_150219.wav,n,t,,,,,0,95,95,147,,,,,,,,,,,,,,,n,1,0.8688969440117944,,,117,001,2019_Mar_18_1446,test_run,3.0.6,60.003646897846714,
51,EFW,EFW_21_varierar_070319.wav,j,t,,,,,0,96,96,50,,,,,,,,,,,,,,,j,1,0.6195995940070134,,,117,001,2019_Mar_18_1446,test_run,3.0.6,60.003646897846714,
95,ENW,ENW_5_spoamisk_150219.wav,n,t,,,,,0,97,97,94,,,,,,,,,,,,,,,n,1,0.669199458003277,,,117,001,2019_Mar_18_1446,test_run,3.0.6,60.003646897846714,
149,ENW,ENW_59_kyrkmänning_150219.wav,n,t,,,,,0,98,98,148,,,,,,,,,,,,,,,n,1,0.7018461520201527,,,117,001,2019_Mar_18_1446,test_run,3.0.6,60.003646897846714,
72,EFW,EFW_42_naavaron_070319.wav,j,t,,,,,0,99,99,71,,,,,,,,,,,,,,,j,1,0.35233442700700834,,,117,001,2019_Mar_18_1446,test_run,3.0.6,60.003646897846714,
158,ENW,ENW_68_presionar_150219.wav,n,t,,,,,0,100,100,157,,,,,,,,,,,,,,,n,1,0.4028313460003119,,,117,001,2019_Mar_18_1446,test_run,3.0.6,60.003646897846714,
110,ENW,ENW_20_invonen_150219.wav,n,t,,,,,0,101,101,109,,,,,,,,,,,,,,,n,1,0.3685537310084328,,,117,001,2019_Mar_18_1446,test_run,3.0.6,60.003646897846714,
120,ENW,ENW_30_sojera_150219.wav,n,t,,,,,0,102,102,119,,,,,,,,,,,,,,,n,1,0.7190536459966097,,,117,001,2019_Mar_18_1446,test_run,3.0.6,60.003646897846714,
145,ENW,ENW_55_invaskin_150219.wav,n,t,,,,,0,103,103,144,,,,,,,,,,,,,,,n,1,0.41913548699812964,,,117,001,2019_Mar_18_1446,test_run,3.0.6,60.003646897846714,
7,ETW,ETW_7_hemland_070319.wav,j,t,,,,,0,104,104,6,,,,,,,,,,,,,,,j,1,0.28532024900778197,,,117,001,2019_Mar_18_1446,test_run,3.0.6,60.003646897846714,
101,ENW,ENW_11_fränna_150219.wav,n,t,,,,,0,105,105,100,,,,,,,,,,,,,,,n,1,0.43628786798217334,,,117,001,2019_Mar_18_1446,test_run,3.0.6,60.003646897846714,
50,EFW,EFW_20_fenomen_070319.wav,j,t,,,,,0,106,106,49,,,,,,,,,,,,,,,j,1,0.5529867970035411,,,117,001,2019_Mar_18_1446,test_run,3.0.6,60.003646897846714,
132,ENW,ENW_42_hamsforing_150219.wav,n,t,,,,,0,107,107,131,,,,,,,,,,,,,,,n,1,0.819485315005295,,,117,001,2019_Mar_18_1446,test_run,3.0.6,60.003646897846714,
23,ETW,ETW_23_promenad_070319.wav,j,t,,,,,0,108,108,22,,,,,,,,,,,,,,,j,1,0.6351838120026514,,,117,001,2019_Mar_18_1446,test_run,3.0.6,60.003646897846714,
134,ENW,ENW_44_inlivna_150219.wav,n,t,,,,,0,109,109,133,,,,,,,,,,,,,,,n,1,1.1359183170134202,,,117,001,2019_Mar_18_1446,test_run,3.0.6,60.003646897846714,
52,EFW,EFW_22_normala_070319.wav,j,t,,,,,0,110,110,51,,,,,,,,,,,,,,,j,1,1.1025382470106706,,,117,001,2019_Mar_18_1446,test_run,3.0.6,60.003646897846714,
75,EFW,EFW_45_innanfoer_070319.wav,j,t,,,,,0,111,111,74,,,,,,,,,,,,,,,j,1,0.03553577000275254,,,117,001,2019_Mar_18_1446,test_run,3.0.6,60.003646897846714,
85,EFW,EFW_55_oroar_070319.wav,j,t,,,,,0,112,112,84,,,,,,,,,,,,,,,j,1,2.1861516049830243,,,117,001,2019_Mar_18_1446,test_run,3.0.6,60.003646897846714,
26,ETW,ETW_26_olympiad_070319.wav,j,t,,,,,0,113,113,25,,,,,,,,,,,,,,,j,1,0.3837259499996435,,,117,001,2019_Mar_18_1446,test_run,3.0.6,60.003646897846714,
13,ETW,ETW_13_oevervoald_070319.wav,j,t,,,,,0,114,114,12,,,,,,,,,,,,,,,j,1,0.3693471110018436,,,117,001,2019_Mar_18_1446,test_run,3.0.6,60.003646897846714,
170,ENW,ENW_80_tjarfera_150219.wav,n,t,,,,,0,115,115,169,,,,,,,,,,,,,,,n,1,0.335787921998417,,,117,001,2019_Mar_18_1446,test_run,3.0.6,60.003646897846714,
1,ETW,ETW_1_oskuld_070319.wav,j,t,,,,,0,116,116,0,,,,,,,,,,,,,,,j,1,0.8022119509987533,,,117,001,2019_Mar_18_1446,test_run,3.0.6,60.003646897846714,
27,ETW,ETW_27_medellivslaangd_070319.wav,j,t,,,,,0,117,117,26,,,,,,,,,,,,,,,j,1,0.8856210760131944,,,117,001,2019_Mar_18_1446,test_run,3.0.6,60.003646897846714,
99,ENW,ENW_9_samlemor_150219.wav,n,t,,,,,0,118,118,98,,,,,,,,,,,,,,,n,1,0.38505212200107053,,,117,001,2019_Mar_18_1446,test_run,3.0.6,60.003646897846714,
135,ENW,ENW_45_fammoarens_150219.wav,n,t,,,,,0,119,119,134,,,,,,,,,,,,,,,n,1,0.35210773500148207,,,117,001,2019_Mar_18_1446,test_run,3.0.6,60.003646897846714,
8,ETW,ETW_8_samfund_070319.wav,j,t,,,,,0,120,120,7,,,,,,,,,,,,,,,j,1,0.569475213997066,,,117,001,2019_Mar_18_1446,test_run,3.0.6,60.003646897846714,
10,ETW,ETW_10_nomad_070319.wav,j,t,,,,,0,121,121,9,,,,,,,,,,,,,,,j,1,0.6690177450072952,,,117,001,2019_Mar_18_1446,test_run,3.0.6,60.003646897846714,
25,ETW,ETW_25_mikrosekund_070319.wav,j,t,,,,,0,122,122,24,,,,,,,,,,,,,,,j,1,0.6854453520209063,,,117,001,2019_Mar_18_1446,test_run,3.0.6,60.003646897846714,
165,ENW,ENW_75_foarskining_150219.wav,n,t,,,,,0,123,123,164,,,,,,,,,,,,,,,n,1,0.9860270110075362,,,117,001,2019_Mar_18_1446,test_run,3.0.6,60.003646897846714,
137,ENW,ENW_47_oafläppen_150219.wav,n,t,,,,,0,124,124,136,,,,,,,,,,,,,,,n,1,0.9006125930172857,,,117,001,2019_Mar_18_1446,test_run,3.0.6,60.003646897846714,
176,ENW,ENW_86_heloppsin_150219.wav,n,t,,,,,0,125,125,175,,,,,,,,,,,,,,,n,1,0.9696199370082468,,,117,001,2019_Mar_18_1446,test_run,3.0.6,60.003646897846714,
18,ETW,ETW_18_husfasad_070319.wav,j,t,,,,,0,126,126,17,,,,,,,,,,,,,,,j,1,0.4025637799932156,,,117,001,2019_Mar_18_1446,test_run,3.0.6,60.003646897846714,
139,ENW,ENW_49_hälskrena_150219.wav,n,t,,,,,0,127,127,138,,,,,,,,,,,,,,,n,1,1.0190087599912658,,,117,001,2019_Mar_18_1446,test_run,3.0.6,60.003646897846714,
82,EFW,EFW_52_framhoalla_070319.wav,j,t,,,,,0,128,128,81,,,,,,,,,,,,,,,j,1,0.418982130009681,,,117,001,2019_Mar_18_1446,test_run,3.0.6,60.003646897846714,
153,ENW,ENW_63_femyrisk_150219.wav,n,t,,,,,0,129,129,152,,,,,,,,,,,,,,,n,1,0.33579847699729726,,,117,001,2019_Mar_18_1446,test_run,3.0.6,60.003646897846714,
47,EFW,EFW_17_januari_070319.wav,j,t,,,,,0,130,130,46,,,,,,,,,,,,,,,j,1,0.35283580399118364,,,117,001,2019_Mar_18_1446,test_run,3.0.6,60.003646897846714,
92,ENW,ENW_2_overralka_150219.wav,n,t,,,,,0,131,131,91,,,,,,,,,,,,,,,n,1,0.4021306660142727,,,117,001,2019_Mar_18_1446,test_run,3.0.6,60.003646897846714,
24,ETW,ETW_24_oeverfloed_070319.wav,j,t,,,,,0,132,132,23,,,,,,,,,,,,,,,j,1,0.3851701280218549,,,117,001,2019_Mar_18_1446,test_run,3.0.6,60.003646897846714,
28,ETW,ETW_28_kommunalroad_070319.wav,j,t,,,,,0,133,133,27,,,,,,,,,,,,,,,j,1,0.43639258202165365,,,117,001,2019_Mar_18_1446,test_run,3.0.6,60.003646897846714,
125,ENW,ENW_35_nymaljen_150219.wav,n,t,,,,,0,134,134,124,,,,,,,,,,,,,,,n,1,0.4172302749939263,,,117,001,2019_Mar_18_1446,test_run,3.0.6,60.003646897846714,
114,ENW,ENW_24_samjoner_150219.wav,n,t,,,,,0,135,135,113,,,,,,,,,,,,,,,n,1,0.43548938201274723,,,117,001,2019_Mar_18_1446,test_run,3.0.6,60.003646897846714,
113,ENW,ENW_23_allsänning_150219.wav,n,t,,,,,0,136,136,112,,,,,,,,,,,,,,,n,1,2.2521163189958315,,,117,001,2019_Mar_18_1446,test_run,3.0.6,60.003646897846714,
20,ETW,ETW_20_loppmarknad_070319.wav,j,t,,,,,0,137,137,19,,,,,,,,,,,,,,,j,1,0.36930596799356863,,,117,001,2019_Mar_18_1446,test_run,3.0.6,60.003646897846714,
48,EFW,EFW_18_nummer_070319.wav,j,t,,,,,0,138,138,47,,,,,,,,,,,,,,,j,1,0.5192749599809758,,,117,001,2019_Mar_18_1446,test_run,3.0.6,60.003646897846714,
105,ENW,ENW_15_forfeckla_150219.wav,n,t,,,,,0,139,139,104,,,,,,,,,,,,,,,n,1,0.2860859540232923,,,117,001,2019_Mar_18_1446,test_run,3.0.6,60.003646897846714,
133,ENW,ENW_43_axalän_150219.wav,n,t,,,,,0,140,140,132,,,,,,,,,,,,,,,n,1,0.2856495339947287,,,117,001,2019_Mar_18_1446,test_run,3.0.6,60.003646897846714,
63,EFW,EFW_33_elva_070319.wav,j,t,,,,,0,141,141,62,,,,,,,,,,,,,,,j,1,0.3189827059977688,,,117,001,2019_Mar_18_1446,test_run,3.0.6,60.003646897846714,
91,ENW,ENW_1_norsimerar_150219.wav,n,t,,,,,0,142,142,90,,,,,,,,,,,,,,,n,1,0.3020445220172405,,,117,001,2019_Mar_18_1446,test_run,3.0.6,60.003646897846714,
3,ETW,ETW_3_choklad_070319.wav,j,t,,,,,0,143,143,2,,,,,,,,,,,,,,,j,1,0.3354961120057851,,,117,001,2019_Mar_18_1446,test_run,3.0.6,60.003646897846714,
22,ETW,ETW_22_sinnesfrid_070319.wav,j,t,,,,,0,144,144,21,,,,,,,,,,,,,,,j,1,0.3525488890009001,,,117,001,2019_Mar_18_1446,test_run,3.0.6,60.003646897846714,
167,ENW,ENW_77_somfera_150219.wav,n,t,,,,,0,145,145,166,,,,,,,,,,,,,,,n,1,0.46943075000308454,,,117,001,2019_Mar_18_1446,test_run,3.0.6,60.003646897846714,
67,EFW,EFW_37_foervisso_070319.wav,j,t,,,,,0,146,146,66,,,,,,,,,,,,,,,j,1,0.983589085022686,,,117,001,2019_Mar_18_1446,test_run,3.0.6,60.003646897846714,
144,ENW,ENW_54_lomering_150219.wav,n,t,,,,,0,147,147,143,,,,,,,,,,,,,,,n,1,0.6689948019920848,,,117,001,2019_Mar_18_1446,test_run,3.0.6,60.003646897846714,
38,EFW,EFW_8_samman_070319.wav,j,t,,,,,0,148,148,37,,,,,,,,,,,,,,,j,1,0.6362034019839484,,,117,001,2019_Mar_18_1446,test_run,3.0.6,60.003646897846714,
56,EFW,EFW_26_armarna_070319.wav,j,t,,,,,0,149,149,55,,,,,,,,,,,,,,,j,1,0.36987436900381,,,117,001,2019_Mar_18_1446,test_run,3.0.6,60.003646897846714,
39,EFW,EFW_9_infektion_070319.wav,j,t,,,,,0,150,150,38,,,,,,,,,,,,,,,j,1,0.6028096380177885,,,117,001,2019_Mar_18_1446,test_run,3.0.6,60.003646897846714,
76,EFW,EFW_46_foerhoer_070319.wav,j,t,,,,,0,151,151,75,,,,,,,,,,,,,,,j,1,0.6529040780151263,,,117,001,2019_Mar_18_1446,test_run,3.0.6,60.003646897846714,
154,ENW,ENW_64_havskvare_150219.wav,n,t,,,,,0,152,152,153,,,,,,,,,,,,,,,n,1,0.4855379590007942,,,117,001,2019_Mar_18_1446,test_run,3.0.6,60.003646897846714,
87,EFW,EFW_57_loenerna_070319.wav,j,t,,,,,0,153,153,86,,,,,,,,,,,,,,,j,1,0.586052494996693,,,117,001,2019_Mar_18_1446,test_run,3.0.6,60.003646897846714,
128,ENW,ENW_38_roakanier_150219.wav,n,t,,,,,0,154,154,127,,,,,,,,,,,,,,,n,1,0.5522093440231401,,,117,001,2019_Mar_18_1446,test_run,3.0.6,60.003646897846714,
89,EFW,EFW_59_filosofin_070319.wav,j,t,,,,,0,155,155,88,,,,,,,,,,,,,,,j,1,0.35249470901908353,,,117,001,2019_Mar_18_1446,test_run,3.0.6,60.003646897846714,
11,ETW,ETW_11_period_070319.wav,j,t,,,,,0,156,156,10,,,,,,,,,,,,,,,j,1,0.752040218008915,,,117,001,2019_Mar_18_1446,test_run,3.0.6,60.003646897846714,
111,ENW,ENW_21_tjulning_150219.wav,n,t,,,,,0,157,157,110,,,,,,,,,,,,,,,j,0,1.918886180006666,,,117,001,2019_Mar_18_1446,test_run,3.0.6,60.003646897846714,
161,ENW,ENW_71_forskäckla_150219.wav,n,t,,,,,0,158,158,160,,,,,,,,,,,,,,,n,1,0.38555796700529754,,,117,001,2019_Mar_18_1446,test_run,3.0.6,60.003646897846714,
16,ETW,ETW_16_episod_070319.wav,j,t,,,,,0,159,159,15,,,,,,,,,,,,,,,j,1,0.5525105860142503,,,117,001,2019_Mar_18_1446,test_run,3.0.6,60.003646897846714,
36,EFW,EFW_6_massa_070319.wav,j,t,,,,,0,160,160,35,,,,,,,,,,,,,,,j,1,0.6503247789805755,,,117,001,2019_Mar_18_1446,test_run,3.0.6,60.003646897846714,
49,EFW,EFW_19_roerelse_070319.wav,j,t,,,,,0,161,161,48,,,,,,,,,,,,,,,j,1,0.9855117079860065,,,117,001,2019_Mar_18_1446,test_run,3.0.6,60.003646897846714,
58,EFW,EFW_28_olja_070319.wav,j,t,,,,,0,162,162,57,,,,,,,,,,,,,,,j,1,0.7006588820077013,,,117,001,2019_Mar_18_1446,test_run,3.0.6,60.003646897846714,
83,EFW,EFW_53_sovrum_070319.wav,j,t,,,,,0,163,163,82,,,,,,,,,,,,,,,j,1,0.33577607801998965,,,117,001,2019_Mar_18_1446,test_run,3.0.6,60.003646897846714,
171,ENW,ENW_81_persifera_150219.wav,n,t,,,,,0,164,164,170,,,,,,,,,,,,,,,n,1,0.2520340039918665,,,117,001,2019_Mar_18_1446,test_run,3.0.6,60.003646897846714,
46,EFW,EFW_16_lyssna_070319.wav,j,t,,,,,0,165,165,45,,,,,,,,,,,,,,,j,1,0.469098716013832,,,117,001,2019_Mar_18_1446,test_run,3.0.6,60.003646897846714,
112,ENW,ENW_22_fjäserna_150219.wav,n,t,,,,,0,166,166,111,,,,,,,,,,,,,,,n,1,0.6004881699918769,,,117,001,2019_Mar_18_1446,test_run,3.0.6,60.003646897846714,
4,ETW,ETW_4_livraadd_070319.wav,j,t,,,,,0,167,167,3,,,,,,,,,,,,,,,j,1,0.4689658079878427,,,117,001,2019_Mar_18_1446,test_run,3.0.6,60.003646897846714,
168,ENW,ENW_78_morvinder_150219.wav,n,t,,,,,0,168,168,167,,,,,,,,,,,,,,,n,1,1.0352799340034835,,,117,001,2019_Mar_18_1446,test_run,3.0.6,60.003646897846714,
119,ENW,ENW_29_uppskira_150219.wav,n,t,,,,,0,169,169,118,,,,,,,,,,,,,,,n,1,0.3857437380065676,,,117,001,2019_Mar_18_1446,test_run,3.0.6,60.003646897846714,
159,ENW,ENW_69_mjohusa_150219.wav,n,t,,,,,0,170,170,158,,,,,,,,,,,,,,,n,1,0.33386948000406846,,,117,001,2019_Mar_18_1446,test_run,3.0.6,60.003646897846714,
157,ENW,ENW_67_oafreskar_150219.wav,n,t,,,,,0,171,171,156,,,,,,,,,,,,,,,n,1,0.5522032789885998,,,117,001,2019_Mar_18_1446,test_run,3.0.6,60.003646897846714,
141,ENW,ENW_51_skillare_150219.wav,n,t,,,,,0,172,172,140,,,,,,,,,,,,,,,n,1,0.43548004201147705,,,117,001,2019_Mar_18_1446,test_run,3.0.6,60.003646897846714,
151,ENW,ENW_61_myckskina_150219.wav,n,t,,,,,0,173,173,150,,,,,,,,,,,,,,,n,1,0.4197427459876053,,,117,001,2019_Mar_18_1446,test_run,3.0.6,60.003646897846714,
88,EFW,EFW_58_examen_070319.wav,j,t,,,,,0,174,174,87,,,,,,,,,,,,,,,j,1,0.38559501501731575,,,117,001,2019_Mar_18_1446,test_run,3.0.6,60.003646897846714,
115,ENW,ENW_25_affierar_150219.wav,n,t,,,,,0,175,175,114,,,,,,,,,,,,,,,n,1,0.4520774800039362,,,117,001,2019_Mar_18_1446,test_run,3.0.6,60.003646897846714,
121,ENW,ENW_31_romation_150219.wav,n,t,,,,,0,176,176,120,,,,,,,,,,,,,,,n,1,1.9024419490015134,,,117,001,2019_Mar_18_1446,test_run,3.0.6,60.003646897846714,
12,ETW,ETW_12_offerlund_070319.wav,j,t,,,,,0,177,177,11,,,,,,,,,,,,,,,j,1,0.43564427000819705,,,117,001,2019_Mar_18_1446,test_run,3.0.6,60.003646897846714,
70,EFW,EFW_40_miljoner_070319.wav,j,t,,,,,0,178,178,69,,,,,,,,,,,,,,,j,1,0.36920162200112827,,,117,001,2019_Mar_18_1446,test_run,3.0.6,60.003646897846714,
104,ENW,ENW_14_kärmenor_150219.wav,n,t,,,,,0,179,179,103,,,,,,,,,,,,,,,n,1,0.5856537660001777,,,117,001,2019_Mar_18_1446,test_run,3.0.6,60.003646897846714,
1,TTF,TTF_1_rit_070319.wav,,,1,rating_t_final.csv,t,final,,,,,0,0,0,0,0,0,0,1,0,0,0,0,,,,,,7,13.153,117,001,2019_Mar_18_1446,test_run,3.0.6,60.003646897846714,
18,TDF,TDF_18_sjud_070319.wav,,,1,rating_t_final.csv,t,final,,,,,0,0,0,0,0,0,0,1,0,1,1,17,,,,,,1,8.187,117,001,2019_Mar_18_1446,test_run,3.0.6,60.003646897846714,
30,TDF,TDF_30_sladd_070319.wav,,,1,rating_t_final.csv,t,final,,,,,0,0,0,0,0,0,0,1,0,2,2,29,,,,,,1,3.919,117,001,2019_Mar_18_1446,test_run,3.0.6,60.003646897846714,
5,TTF,TTF_5_voat_070319.wav,,,1,rating_t_final.csv,t,final,,,,,0,0,0,0,0,0,0,1,0,3,3,4,,,,,,7,5.687,117,001,2019_Mar_18_1446,test_run,3.0.6,60.003646897846714,
16,TTF,TTF_16_font_070319.wav,,,1,rating_t_final.csv,t,final,,,,,0,0,0,0,0,0,0,1,0,4,4,15,,,,,,7,3.203,117,001,2019_Mar_18_1446,test_run,3.0.6,60.003646897846714,
28,TDF,TDF_28_brand_070319.wav,,,1,rating_t_final.csv,t,final,,,,,0,0,0,0,0,0,0,1,0,5,5,27,,,,,,4,4.019,117,001,2019_Mar_18_1446,test_run,3.0.6,60.003646897846714,
13,TTF,TTF_13_gjut_070319.wav,,,1,rating_t_final.csv,t,final,,,,,0,0,0,0,0,0,0,1,0,6,6,12,,,,,,7,5.003,117,001,2019_Mar_18_1446,test_run,3.0.6,60.003646897846714,
3,TTF,TTF_3_raat_070319.wav,,,1,rating_t_final.csv,t,final,,,,,0,0,0,0,0,0,0,1,0,7,7,2,,,,,,7,3.169,117,001,2019_Mar_18_1446,test_run,3.0.6,60.003646897846714,
27,TDF,TDF_27_sand_070319.wav,,,1,rating_t_final.csv,t,final,,,,,0,0,0,0,0,0,0,1,0,8,8,26,,,,,,1,3.753,117,001,2019_Mar_18_1446,test_run,3.0.6,60.003646897846714,
29,TDF,TDF_29_baadd_070319.wav,,,1,rating_t_final.csv,t,final,,,,,0,0,0,0,0,0,0,1,0,9,9,28,,,,,,3,3.619,117,001,2019_Mar_18_1446,test_run,3.0.6,60.003646897846714,
2,TTF,TTF_2_vet_070319.wav,,,1,rating_t_final.csv,t,final,,,,,0,0,0,0,0,0,0,1,0,10,10,1,,,,,,5,7.836,117,001,2019_Mar_18_1446,test_run,3.0.6,60.003646897846714,
24,TDF,TDF_24_smid_070319.wav,,,1,rating_t_final.csv,t,final,,,,,0,0,0,0,0,0,0,1,0,11,11,23,,,,,,1,5.57,117,001,2019_Mar_18_1446,test_run,3.0.6,60.003646897846714,
10,TTF,TTF_10_broet_070319.wav,,,1,rating_t_final.csv,t,final,,,,,0,0,0,0,0,0,0,1,0,12,12,9,,,,,,7,3.636,117,001,2019_Mar_18_1446,test_run,3.0.6,60.003646897846714,
23,TDF,TDF_23_hud_070319.wav,,,1,rating_t_final.csv,t,final,,,,,0,0,0,0,0,0,0,1,0,13,13,22,,,,,,1,3.07,117,001,2019_Mar_18_1446,test_run,3.0.6,60.003646897846714,
21,TDF,TDF_21_ljod _070319.wav,,,1,rating_t_final.csv,t,final,,,,,0,0,0,0,0,0,0,1,0,14,14,20,,,,,,4,7.754,117,001,2019_Mar_18_1446,test_run,3.0.6,60.003646897846714,
25,TDF,TDF_25_synd_070319.wav,,,1,rating_t_final.csv,t,final,,,,,0,0,0,0,0,0,0,1,0,15,15,24,,,,,,1,5.453,117,001,2019_Mar_18_1446,test_run,3.0.6,60.003646897846714,
22,TDF,TDF_22_hed_070319.wav,,,1,rating_t_final.csv,t,final,,,,,0,0,0,0,0,0,0,1,0,16,16,21,,,,,,1,3.287,117,001,2019_Mar_18_1446,test_run,3.0.6,60.003646897846714,
32,TDF,TDF_32_hoard_070319.wav,,,1,rating_t_final.csv,t,final,,,,,0,0,0,0,0,0,0,1,0,17,17,31,,,,,,1,2.72,117,001,2019_Mar_18_1446,test_run,3.0.6,60.003646897846714,
11,TTF,TTF_11_svit_070319.wav,,,1,rating_t_final.csv,t,final,,,,,0,0,0,0,0,0,0,1,0,18,18,10,,,,,,7,4.387,117,001,2019_Mar_18_1446,test_run,3.0.6,60.003646897846714,
17,TDF,TDF_17_sked_070319.wav,,,1,rating_t_final.csv,t,final,,,,,0,0,0,0,0,0,0,1,0,19,19,16,,,,,,1,3.503,117,001,2019_Mar_18_1446,test_run,3.0.6,60.003646897846714,
14,TTF,TTF_14_mot_070319.wav,,,1,rating_t_final.csv,t,final,,,,,0,0,0,0,0,0,0,1,0,20,20,13,,,,,,7,2.27,117,001,2019_Mar_18_1446,test_run,3.0.6,60.003646897846714,
20,TDF,TDF_20_god_070319.wav,,,1,rating_t_final.csv,t,final,,,,,0,0,0,0,0,0,0,1,0,21,21,19,,,,,,4,6.871,117,001,2019_Mar_18_1446,test_run,3.0.6,60.003646897846714,
9,TTF,TTF_9_bot_070319.wav,,,1,rating_t_final.csv,t,final,,,,,0,0,0,0,0,0,0,1,0,22,22,8,,,,,,7,2.988,117,001,2019_Mar_18_1446,test_run,3.0.6,60.003646897846714,
19,TDF,TDF_19_sjod_070319.wav,,,1,rating_t_final.csv,t,final,,,,,0,0,0,0,0,0,0,1,0,23,23,18,,,,,,5,3.604,117,001,2019_Mar_18_1446,test_run,3.0.6,60.003646897846714,
7,TTF,TTF_7_vit_070319.wav,,,1,rating_t_final.csv,t,final,,,,,0,0,0,0,0,0,0,1,0,24,24,6,,,,,,7,3.187,117,001,2019_Mar_18_1446,test_run,3.0.6,60.003646897846714,
6,TTF,TTF_6_voart_070319.wav,,,1,rating_t_final.csv,t,final,,,,,0,0,0,0,0,0,0,1,0,25,25,5,,,,,,7,2.769,117,001,2019_Mar_18_1446,test_run,3.0.6,60.003646897846714,
31,TDF,TDF_31_brodd_070319.wav,,,1,rating_t_final.csv,t,final,,,,,0,0,0,0,0,0,0,1,0,26,26,30,,,,,,6,2.97,117,001,2019_Mar_18_1446,test_run,3.0.6,60.003646897846714,
8,TTF,TTF_8_noet_070319.wav,,,1,rating_t_final.csv,t,final,,,,,0,0,0,0,0,0,0,1,0,27,27,7,,,,,,7,2.038,117,001,2019_Mar_18_1446,test_run,3.0.6,60.003646897846714,
4,TTF,TTF_4_roet_070319.wav,,,1,rating_t_final.csv,t,final,,,,,0,0,0,0,0,0,0,1,0,28,28,3,,,,,,7,2.904,117,001,2019_Mar_18_1446,test_run,3.0.6,60.003646897846714,
26,TDF,TDF_26_rymd_070319.wav,,,1,rating_t_final.csv,t,final,,,,,0,0,0,0,0,0,0,1,0,29,29,25,,,,,,1,3.637,117,001,2019_Mar_18_1446,test_run,3.0.6,60.003646897846714,
15,TTF,TTF_15_not_070319.wav,,,1,rating_t_final.csv,t,final,,,,,0,0,0,0,0,0,0,1,0,30,30,14,,,,,,7,2.436,117,001,2019_Mar_18_1446,test_run,3.0.6,60.003646897846714,
12,TTF,TTF_12_smet_070319.wav,,,1,rating_t_final.csv,t,final,,,,,0,0,0,0,0,0,0,1,0,31,31,11,,,,,,7,3.236,117,001,2019_Mar_18_1446,test_run,3.0.6,60.003646897846714,
16,TDF,TDF_16_fond_070319.wav,,,1,rating_d_final.csv,d,final,,,,,0,0,0,0,0,1,1,0,0,0,0,15,,,,,,7,5.62,117,001,2019_Mar_18_1446,test_run,3.0.6,60.003646897846714,
29,TTF,TTF_29_bett_070319.wav,,,1,rating_d_final.csv,d,final,,,,,0,0,0,0,0,1,1,0,0,1,1,28,,,,,,1,2.471,117,001,2019_Mar_18_1446,test_run,3.0.6,60.003646897846714,
20,TTF,TTF_20_got_070319.wav,,,1,rating_d_final.csv,d,final,,,,,0,0,0,0,0,1,1,0,0,2,2,19,,,,,,1,2.869,117,001,2019_Mar_18_1446,test_run,3.0.6,60.003646897846714,
30,TTF,TTF_30_slatt_070319.wav,,,1,rating_d_final.csv,d,final,,,,,0,0,0,0,0,1,1,0,0,3,3,29,,,,,,1,2.552,117,001,2019_Mar_18_1446,test_run,3.0.6,60.003646897846714,
27,TTF,TTF_27_sant_070319.wav,,,1,rating_d_final.csv,d,final,,,,,0,0,0,0,0,1,1,0,0,4,4,26,,,,,,1,2.969,117,001,2019_Mar_18_1446,test_run,3.0.6,60.003646897846714,
10,TDF,TDF_10_brod_070319.wav,,,1,rating_d_final.csv,d,final,,,,,0,0,0,0,0,1,1,0,0,5,5,9,,,,,,6,2.969,117,001,2019_Mar_18_1446,test_run,3.0.6,60.003646897846714,
22,TTF,TTF_22_het_070319.wav,,,1,rating_d_final.csv,d,final,,,,,0,0,0,0,0,1,1,0,0,6,6,21,,,,,,1,3.203,117,001,2019_Mar_18_1446,test_run,3.0.6,60.003646897846714,
1,TDF,TDF_1_rid_070319.wav,,,1,rating_d_final.csv,d,final,,,,,0,0,0,0,0,1,1,0,0,7,7,0,,,,,,5,2.302,117,001,2019_Mar_18_1446,test_run,3.0.6,60.003646897846714,
18,TTF,TTF_18_skjut_070319.wav,,,1,rating_d_final.csv,d,final,,,,,0,0,0,0,0,1,1,0,0,8,8,17,,,,,,1,3.086,117,001,2019_Mar_18_1446,test_run,3.0.6,60.003646897846714,
28,TTF,TTF_28_brant_070319.wav,,,1,rating_d_final.csv,d,final,,,,,0,0,0,0,0,1,1,0,0,9,9,27,,,,,,2,9.153,117,001,2019_Mar_18_1446,test_run,3.0.6,60.003646897846714,
25,TTF,TTF_25_synt_070319.wav,,,1,rating_d_final.csv,d,final,,,,,0,0,0,0,0,1,1,0,0,10,10,24,,,,,,2,4.387,117,001,2019_Mar_18_1446,test_run,3.0.6,60.003646897846714,
2,TDF,TDF_2_ved_070319.wav,,,1,rating_d_final.csv,d,final,,,,,0,0,0,0,0,1,1,0,0,11,11,1,,,,,,6,2.003,117,001,2019_Mar_18_1446,test_run,3.0.6,60.003646897846714,
5,TDF,TDF_5_voad_070319.wav,,,1,rating_d_final.csv,d,final,,,,,0,0,0,0,0,1,1,0,0,12,12,4,,,,,,6,3.053,117,001,2019_Mar_18_1446,test_run,3.0.6,60.003646897846714,
3,TDF,TDF_3_raad_070319.wav,,,1,rating_d_final.csv,d,final,,,,,0,0,0,0,0,1,1,0,0,13,13,2,,,,,,5,2.519,117,001,2019_Mar_18_1446,test_run,3.0.6,60.003646897846714,
17,TTF,TTF_17_sket_070319.wav,,,1,rating_d_final.csv,d,final,,,,,0,0,0,0,0,1,1,0,0,14,14,16,,,,,,1,2.403,117,001,2019_Mar_18_1446,test_run,3.0.6,60.003646897846714,
13,TDF,TDF_13_ljud_070319.wav,,,1,rating_d_final.csv,d,final,,,,,0,0,0,0,0,1,1,0,0,15,15,12,,,,,,5,3.804,117,001,2019_Mar_18_1446,test_run,3.0.6,60.003646897846714,
15,TDF,TDF_15_nod_070319.wav,,,1,rating_d_final.csv,d,final,,,,,0,0,0,0,0,1,1,0,0,16,16,14,,,,,,5,2.838,117,001,2019_Mar_18_1446,test_run,3.0.6,60.003646897846714,
8,TDF,TDF_8_nod_070319.wav,,,1,rating_d_final.csv,d,final,,,,,0,0,0,0,0,1,1,0,0,17,17,7,,,,,,7,2.186,117,001,2019_Mar_18_1446,test_run,3.0.6,60.003646897846714,
9,TDF,TDF_9_bod_070319.wav,,,1,rating_d_final.csv,d,final,,,,,0,0,0,0,0,1,1,0,0,18,18,8,,,,,,1,2.903,117,001,2019_Mar_18_1446,test_run,3.0.6,60.003646897846714,
26,TTF,TTF_26_rymt_070319.wav,,,1,rating_d_final.csv,d,final,,,,,0,0,0,0,0,1,1,0,0,19,19,25,,,,,,1,2.519,117,001,2019_Mar_18_1446,test_run,3.0.6,60.003646897846714,
19,TTF,TTF_19_skoet_070319.wav,,,1,rating_d_final.csv,d,final,,,,,0,0,0,0,0,1,1,0,0,20,20,18,,,,,,1,2.619,117,001,2019_Mar_18_1446,test_run,3.0.6,60.003646897846714,
12,TDF,TDF_12_smed_070319.wav,,,1,rating_d_final.csv,d,final,,,,,0,0,0,0,0,1,1,0,0,21,21,11,,,,,,5,4.887,117,001,2019_Mar_18_1446,test_run,3.0.6,60.003646897846714,
32,TTF,TTF_32_hoart_070319.wav,,,1,rating_d_final.csv,d,final,,,,,0,0,0,0,0,1,1,0,0,22,22,31,,,,,,1,2.753,117,001,2019_Mar_18_1446,test_run,3.0.6,60.003646897846714,
11,TDF,TDF_11_svid_070319.wav,,,1,rating_d_final.csv,d,final,,,,,0,0,0,0,0,1,1,0,0,23,23,10,,,,,,2,2.787,117,001,2019_Mar_18_1446,test_run,3.0.6,60.003646897846714,
21,TTF,TTF_21_gjoet_070319.wav,,,1,rating_d_final.csv,d,final,,,,,0,0,0,0,0,1,1,0,0,24,24,20,,,,,,1,2.786,117,001,2019_Mar_18_1446,test_run,3.0.6,60.003646897846714,
24,TTF,TTF_24_smit_070319.wav,,,1,rating_d_final.csv,d,final,,,,,0,0,0,0,0,1,1,0,0,25,25,23,,,,,,2,5.153,117,001,2019_Mar_18_1446,test_run,3.0.6,60.003646897846714,
7,TDF,TDF_7_vid_070319.wav,,,1,rating_d_final.csv,d,final,,,,,0,0,0,0,0,1,1,0,0,26,26,6,,,,,,4,2.553,117,001,2019_Mar_18_1446,test_run,3.0.6,60.003646897846714,
31,TTF,TTF_31_brott_070319.wav,,,1,rating_d_final.csv,d,final,,,,,0,0,0,0,0,1,1,0,0,27,27,30,,,,,,1,2.486,117,001,2019_Mar_18_1446,test_run,3.0.6,60.003646897846714,
23,TTF,TTF_23_hut_070319.wav,,,1,rating_d_final.csv,d,final,,,,,0,0,0,0,0,1,1,0,0,28,28,22,,,,,,1,2.388,117,001,2019_Mar_18_1446,test_run,3.0.6,60.003646897846714,
14,TDF,TDF_14_mod_070319.wav,,,1,rating_d_final.csv,d,final,,,,,0,0,0,0,0,1,1,0,0,29,29,13,,,,,,6,3.853,117,001,2019_Mar_18_1446,test_run,3.0.6,60.003646897846714,
4,TDF,TDF_4_rod_070319.wav,,,1,rating_d_final.csv,d,final,,,,,0,0,0,0,0,1,1,0,0,30,30,3,,,,,,6,2.303,117,001,2019_Mar_18_1446,test_run,3.0.6,60.003646897846714,
6,TDF,TDF_6_voard_070319.wav,,,1,rating_d_final.csv,d,final,,,,,0,0,0,0,0,1,1,0,0,31,31,5,,,,,,6,4.487,117,001,2019_Mar_18_1446,test_run,3.0.6,60.003646897846714,
21,TDI,TDI_21_dugg_150219.wav,,,2,rating_t_initial.csv,t,initial,,,,,0,1,1,1,0,0,0,1,0,0,0,20,,,,,,1,7.637,117,001,2019_Mar_18_1446,test_run,3.0.6,60.003646897846714,
1,TTI,TTI_1_tag_150219.wav,,,2,rating_t_initial.csv,t,initial,,,,,0,1,1,1,0,0,0,1,0,1,1,0,,,,,,6,11.436,117,001,2019_Mar_18_1446,test_run,3.0.6,60.003646897846714,
7,TTI,TTI_7_tenn_150219.wav,,,2,rating_t_initial.csv,t,initial,,,,,0,1,1,1,0,0,0,1,0,2,2,6,,,,,,4,3.569,117,001,2019_Mar_18_1446,test_run,3.0.6,60.003646897846714,
9,TTI,TTI_9_till_150219.wav,,,2,rating_t_initial.csv,t,initial,,,,,0,1,1,1,0,0,0,1,0,3,3,8,,,,,,7,2.885,117,001,2019_Mar_18_1446,test_run,3.0.6,60.003646897846714,
12,TTI,TTI_12_toa_150219.wav,,,2,rating_t_initial.csv,t,initial,,,,,0,1,1,1,0,0,0,1,0,4,4,11,,,,,,7,2.27,117,001,2019_Mar_18_1446,test_run,3.0.6,60.003646897846714,
24,TDI,TDI_24_daack_150219.wav,,,2,rating_t_initial.csv,t,initial,,,,,0,1,1,1,0,0,0,1,0,5,5,23,,,,,,1,3.637,117,001,2019_Mar_18_1446,test_run,3.0.6,60.003646897846714,
25,TDI,TDI_25_daar_150219.wav,,,2,rating_t_initial.csv,t,initial,,,,,0,1,1,1,0,0,0,1,0,6,6,24,,,,,,1,2.352,117,001,2019_Mar_18_1446,test_run,3.0.6,60.003646897846714,
6,TTI,TTI_6_teg_150219.wav,,,2,rating_t_initial.csv,t,initial,,,,,0,1,1,1,0,0,0,1,0,7,7,5,,,,,,5,4.469,117,001,2019_Mar_18_1446,test_run,3.0.6,60.003646897846714,
22,TDI,TDI_22_dy_150219.wav,,,2,rating_t_initial.csv,t,initial,,,,,0,1,1,1,0,0,0,1,0,8,8,21,,,,,,2,3.253,117,001,2019_Mar_18_1446,test_run,3.0.6,60.003646897846714,
8,TTI,TTI_8_tia_150219.wav,,,2,rating_t_initial.csv,t,initial,,,,,0,1,1,1,0,0,0,1,0,9,9,7,,,,,,7,2.02,117,001,2019_Mar_18_1446,test_run,3.0.6,60.003646897846714,
23,TDI,TDI_23_doa_150219.wav,,,2,rating_t_initial.csv,t,initial,,,,,0,1,1,1,0,0,0,1,0,10,10,22,,,,,,3,3.07,117,001,2019_Mar_18_1446,test_run,3.0.6,60.003646897846714,
16,TDI,TDI_16_don_150219.wav,,,2,rating_t_initial.csv,t,initial,,,,,0,1,1,1,0,0,0,1,0,11,11,15,,,,,,2,2.288,117,001,2019_Mar_18_1446,test_run,3.0.6,60.003646897846714,
19,TDI,TDI_19_dun_150219.wav,,,2,rating_t_initial.csv,t,initial,,,,,0,1,1,1,0,0,0,1,0,12,12,18,,,,,,1,2.52,117,001,2019_Mar_18_1446,test_run,3.0.6,60.003646897846714,
10,TTI,TTI_10_titt_150219.wav,,,2,rating_t_initial.csv,t,initial,,,,,0,1,1,1,0,0,0,1,0,13,13,9,,,,,,3,4.854,117,001,2019_Mar_18_1446,test_run,3.0.6,60.003646897846714,
15,TDI,TDI_15_dom_150219.wav,,,2,rating_t_initial.csv,t,initial,,,,,0,1,1,1,0,0,0,1,0,14,14,14,,,,,,2,3.552,117,001,2019_Mar_18_1446,test_run,3.0.6,60.003646897846714,
27,TDI,TDI_27_doem_edit_150219.wav,,,2,rating_t_initial.csv,t,initial,,,,,0,1,1,1,0,0,0,1,0,15,15,26,,,,,,1,3.936,117,001,2019_Mar_18_1446,test_run,3.0.6,60.003646897846714,
5,TTI,TTI_5_tass_150219.wav,,,2,rating_t_initial.csv,t,initial,,,,,0,1,1,1,0,0,0,1,0,16,16,4,,,,,,4,2.67,117,001,2019_Mar_18_1446,test_run,3.0.6,60.003646897846714,
3,TTI,TTI_3_tal_150219.wav,,,2,rating_t_initial.csv,t,initial,,,,,0,1,1,1,0,0,0,1,0,17,17,2,,,,,,6,2.07,117,001,2019_Mar_18_1446,test_run,3.0.6,60.003646897846714,
20,TDI,TDI_20_dur_150219.wav,,,2,rating_t_initial.csv,t,initial,,,,,0,1,1,1,0,0,0,1,0,18,18,19,,,,,,1,2.387,117,001,2019_Mar_18_1446,test_run,3.0.6,60.003646897846714,
26,TDI,TDI_26_doe_150219.wav,,,2,rating_t_initial.csv,t,initial,,,,,0,1,1,1,0,0,0,1,0,19,19,25,,,,,,1,2.27,117,001,2019_Mar_18_1446,test_run,3.0.6,60.003646897846714,
17,TDI,TDI_17_dopp_150219.wav,,,2,rating_t_initial.csv,t,initial,,,,,0,1,1,1,0,0,0,1,0,20,20,16,,,,,,1,1.87,117,001,2019_Mar_18_1446,test_run,3.0.6,60.003646897846714,
13,TTI,TTI_13_tog_150219.wav,,,2,rating_t_initial.csv,t,initial,,,,,0,1,1,1,0,0,0,1,0,21,21,12,,,,,,6,3.536,117,001,2019_Mar_18_1446,test_run,3.0.6,60.003646897846714,
14,TTI,TTI_14_tok_150219.wav,,,2,rating_t_initial.csv,t,initial,,,,,0,1,1,1,0,0,0,1,0,22,22,13,,,,,,7,2.02,117,001,2019_Mar_18_1446,test_run,3.0.6,60.003646897846714,
2,TTI,TTI_2_tagg_150219.wav,,,2,rating_t_initial.csv,t,initial,,,,,0,1,1,1,0,0,0,1,0,23,23,1,,,,,,6,2.419,117,001,2019_Mar_18_1446,test_run,3.0.6,60.003646897846714,
11,TTI,TTI_11_tipp_150219.wav,,,2,rating_t_initial.csv,t,initial,,,,,0,1,1,1,0,0,0,1,0,24,24,10,,,,,,6,4.136,117,001,2019_Mar_18_1446,test_run,3.0.6,60.003646897846714,
18,TDI,TDI_18_dum_150219.wav,,,2,rating_t_initial.csv,t,initial,,,,,0,1,1,1,0,0,0,1,0,25,25,17,,,,,,2,2.753,117,001,2019_Mar_18_1446,test_run,3.0.6,60.003646897846714,
4,TTI,TTI_4_tam_150219.wav,,,2,rating_t_initial.csv,t,initial,,,,,0,1,1,1,0,0,0,1,0,26,26,3,,,,,,6,2.471,117,001,2019_Mar_18_1446,test_run,3.0.6,60.003646897846714,
1,TDI,TDI_1_dag_150219.wav,,,2,rating_d_initial.csv,d,initial,,,,,0,1,1,1,0,1,1,0,0,0,0,0,,,,,,7,4.353,117,001,2019_Mar_18_1446,test_run,3.0.6,60.003646897846714,
23,TTI,TTI_23_toa_150219.wav,,,2,rating_d_initial.csv,d,initial,,,,,0,1,1,1,0,1,1,0,0,1,1,22,,,,,,1,3.436,117,001,2019_Mar_18_1446,test_run,3.0.6,60.003646897846714,
6,TDI,TDI_6_deg_150219.wav,,,2,rating_d_initial.csv,d,initial,,,,,0,1,1,1,0,1,1,0,0,2,2,5,,,,,,6,1.987,117,001,2019_Mar_18_1446,test_run,3.0.6,60.003646897846714,
21,TTI,TTI_21_tugg_150219.wav,,,2,rating_d_initial.csv,d,initial,,,,,0,1,1,1,0,1,1,0,0,3,3,20,,,,,,2,3.737,117,001,2019_Mar_18_1446,test_run,3.0.6,60.003646897846714,
27,TTI,TTI_27_toem_150219.wav,,,2,rating_d_initial.csv,d,initial,,,,,0,1,1,1,0,1,1,0,0,4,4,26,,,,,,2,2.222,117,001,2019_Mar_18_1446,test_run,3.0.6,60.003646897846714,
5,TDI,TDI_5_dass_150219.wav,,,2,rating_d_initial.csv,d,initial,,,,,0,1,1,1,0,1,1,0,0,5,5,4,,,,,,7,2.303,117,001,2019_Mar_18_1446,test_run,3.0.6,60.003646897846714,
19,TTI,TTI_19_tun_150219.wav,,,2,rating_d_initial.csv,d,initial,,,,,0,1,1,1,0,1,1,0,0,6,6,18,,,,,,2,2.803,117,001,2019_Mar_18_1446,test_run,3.0.6,60.003646897846714,
25,TTI,TTI_25_taar_150219.wav,,,2,rating_d_initial.csv,d,initial,,,,,0,1,1,1,0,1,1,0,0,7,7,24,,,,,,4,6.07,117,001,2019_Mar_18_1446,test_run,3.0.6,60.003646897846714,
17,TTI,TTI_17_topp_150219.wav,,,2,rating_d_initial.csv,d,initial,,,,,0,1,1,1,0,1,1,0,0,8,8,16,,,,,,6,4.053,117,001,2019_Mar_18_1446,test_run,3.0.6,60.003646897846714,
7,TDI,TDI_7_den_150219.wav,,,2,rating_d_initial.csv,d,initial,,,,,0,1,1,1,0,1,1,0,0,9,9,6,,,,,,1,2.22,117,001,2019_Mar_18_1446,test_run,3.0.6,60.003646897846714,
2,TDI,TDI_2_dagg_150219.wav,,,2,rating_d_initial.csv,d,initial,,,,,0,1,1,1,0,1,1,0,0,10,10,1,,,,,,1,2.287,117,001,2019_Mar_18_1446,test_run,3.0.6,60.003646897846714,
22,TTI,TTI_22_ty_150219.wav,,,2,rating_d_initial.csv,d,initial,,,,,0,1,1,1,0,1,1,0,0,11,11,21,,,,,,1,9.12,117,001,2019_Mar_18_1446,test_run,3.0.6,60.003646897846714,
20,TTI,TTI_20_tur_150219.wav,,,2,rating_d_initial.csv,d,initial,,,,,0,1,1,1,0,1,1,0,0,12,12,19,,,,,,1,3.437,117,001,2019_Mar_18_1446,test_run,3.0.6,60.003646897846714,
15,TTI,TTI_15_tom_150219.wav,,,2,rating_d_initial.csv,d,initial,,,,,0,1,1,1,0,1,1,0,0,13,13,14,,,,,,1,1.986,117,001,2019_Mar_18_1446,test_run,3.0.6,60.003646897846714,
11,TDI,TDI_11_dipp_150219.wav,,,2,rating_d_initial.csv,d,initial,,,,,0,1,1,1,0,1,1,0,0,14,14,10,,,,,,6,1.954,117,001,2019_Mar_18_1446,test_run,3.0.6,60.003646897846714,
13,TDI,TDI_13_dog_150219.wav,,,2,rating_d_initial.csv,d,initial,,,,,0,1,1,1,0,1,1,0,0,15,15,12,,,,,,6,2.371,117,001,2019_Mar_18_1446,test_run,3.0.6,60.003646897846714,
24,TTI,TTI_24_taack_150219.wav,,,2,rating_d_initial.csv,d,initial,,,,,0,1,1,1,0,1,1,0,0,16,16,23,,,,,,2,2.319,117,001,2019_Mar_18_1446,test_run,3.0.6,60.003646897846714,
9,TDI,TDI_9_dill_150219.wav,,,2,rating_d_initial.csv,d,initial,,,,,0,1,1,1,0,1,1,0,0,17,17,8,,,,,,6,9.354,117,001,2019_Mar_18_1446,test_run,3.0.6,60.003646897846714,
14,TDI,TDI_14_dok_150219.wav,,,2,rating_d_initial.csv,d,initial,,,,,0,1,1,1,0,1,1,0,0,18,18,13,,,,,,6,4.603,117,001,2019_Mar_18_1446,test_run,3.0.6,60.003646897846714,
18,TTI,TTI_18_tum_150219.wav,,,2,rating_d_initial.csv,d,initial,,,,,0,1,1,1,0,1,1,0,0,19,19,17,,,,,,4,3.004,117,001,2019_Mar_18_1446,test_run,3.0.6,60.003646897846714,
4,TDI,TDI_4_dam_150219.wav,,,2,rating_d_initial.csv,d,initial,,,,,0,1,1,1,0,1,1,0,0,20,20,3,,,,,,7,2.321,117,001,2019_Mar_18_1446,test_run,3.0.6,60.003646897846714,
10,TDI,TDI_10_ditt_150219.wav,,,2,rating_d_initial.csv,d,initial,,,,,0,1,1,1,0,1,1,0,0,21,21,9,,,,,,7,2.736,117,001,2019_Mar_18_1446,test_run,3.0.6,60.003646897846714,
12,TDI,TDI_12_doa_150219.wav,,,2,rating_d_initial.csv,d,initial,,,,,0,1,1,1,0,1,1,0,0,22,22,11,,,,,,7,3.22,117,001,2019_Mar_18_1446,test_run,3.0.6,60.003646897846714,
26,TTI,TTI_26_toe_150219.wav,,,2,rating_d_initial.csv,d,initial,,,,,0,1,1,1,0,1,1,0,0,23,23,25,,,,,,3,3.803,117,001,2019_Mar_18_1446,test_run,3.0.6,60.003646897846714,
3,TDI,TDI_3_dal_150219.wav,,,2,rating_d_initial.csv,d,initial,,,,,0,1,1,1,0,1,1,0,0,24,24,2,,,,,,7,2.22,117,001,2019_Mar_18_1446,test_run,3.0.6,60.003646897846714,
8,TDI,TDI_8_dia_150219.wav,,,2,rating_d_initial.csv,d,initial,,,,,0,1,1,1,0,1,1,0,0,25,25,7,,,,,,7,2.57,117,001,2019_Mar_18_1446,test_run,3.0.6,60.003646897846714,
16,TTI,TTI_16_ton_150219.wav,,,2,rating_d_initial.csv,d,initial,,,,,0,1,1,1,0,1,1,0,0,26,26,15,,,,,,2,2.636,117,001,2019_Mar_18_1446,test_run,3.0.6,60.003646897846714,
