item,item_cond,sound,corr_ans,group,block_id,listname,rating_for,position,trials.thisRepN,trials.thisTrialN,trials.thisN,trials.thisIndex,run_block_type.thisRepN,run_block_type.thisTrialN,run_block_type.thisN,run_block_type.thisIndex,routine.thisRepN,routine.thisTrialN,routine.thisN,routine.thisIndex,rating_trials.thisRepN,rating_trials.thisTrialN,rating_trials.thisN,rating_trials.thisIndex,key_resp_1.keys,key_resp_1.rt,key_resp_2.keys,key_resp_2.corr,key_resp_2.rt,rating_1.response,rating_1.rt,participant,session,date,expName,psychopyVersion,frameRate,
,,,,,,,,,,,,,,,,,,,,,,,,,space,16.336361894995207,,,,,,118,001,2019_Mar_18_1530,test_run,3.0.6,59.986271178361655,
37,EFW,EFW_7_sociala_070319.wav,j,c ,,,,,0,0,0,36,,,,,,,,,,,,,,,j,1,0.45343154200236313,,,118,001,2019_Mar_18_1530,test_run,3.0.6,59.986271178361655,
177,ENW,ENW_87_kloavare_150219.wav,n,c ,,,,,0,1,1,176,,,,,,,,,,,,,,,n,1,2.017052907991456,,,118,001,2019_Mar_18_1530,test_run,3.0.6,59.986271178361655,
141,ENW,ENW_51_skillare_150219.wav,n,c ,,,,,0,2,2,140,,,,,,,,,,,,,,,n,1,1.0696877050213516,,,118,001,2019_Mar_18_1530,test_run,3.0.6,59.986271178361655,
117,ENW,ENW_27_lyssvinner_150219.wav,n,c ,,,,,0,3,3,116,,,,,,,,,,,,,,,n,1,0.6186053880082909,,,118,001,2019_Mar_18_1530,test_run,3.0.6,59.986271178361655,
49,EFW,EFW_19_roerelse_070319.wav,j,c ,,,,,0,4,4,48,,,,,,,,,,,,,,,j,1,0.7190998780133668,,,118,001,2019_Mar_18_1530,test_run,3.0.6,59.986271178361655,
79,EFW,EFW_49_vaasen_070319.wav,j,c ,,,,,0,5,5,78,,,,,,,,,,,,,,,j,1,0.5686262450180948,,,118,001,2019_Mar_18_1530,test_run,3.0.6,59.986271178361655,
120,ENW,ENW_30_sojera_150219.wav,n,c ,,,,,0,6,6,119,,,,,,,,,,,,,,,n,1,0.5356673880014569,,,118,001,2019_Mar_18_1530,test_run,3.0.6,59.986271178361655,
76,EFW,EFW_46_foerhoer_070319.wav,j,c ,,,,,0,7,7,75,,,,,,,,,,,,,,,j,1,0.2694593629857991,,,118,001,2019_Mar_18_1530,test_run,3.0.6,59.986271178361655,
143,ENW,ENW_53_svarmvisso_150219.wav,n,c ,,,,,0,8,8,142,,,,,,,,,,,,,,,n,1,0.6357539550226647,,,118,001,2019_Mar_18_1530,test_run,3.0.6,59.986271178361655,
27,ECW,ECW_27_panorama_070319.wav,j,c ,,,,,0,9,9,26,,,,,,,,,,,,,,,j,1,0.5355344069830608,,,118,001,2019_Mar_18_1530,test_run,3.0.6,59.986271178361655,
51,EFW,EFW_21_varierar_070319.wav,j,c ,,,,,0,10,10,50,,,,,,,,,,,,,,,j,1,0.585963460005587,,,118,001,2019_Mar_18_1530,test_run,3.0.6,59.986271178361655,
88,EFW,EFW_58_examen_070319.wav,j,c ,,,,,0,11,11,87,,,,,,,,,,,,,,,j,1,0.33591651401366107,,,118,001,2019_Mar_18_1530,test_run,3.0.6,59.986271178361655,
96,ENW,ENW_6_vilfroaser_150219.wav,n,c ,,,,,0,12,12,95,,,,,,,,,,,,,,,n,1,0.5195320720085874,,,118,001,2019_Mar_18_1530,test_run,3.0.6,59.986271178361655,
89,EFW,EFW_59_filosofin_070319.wav,j,c ,,,,,0,13,13,88,,,,,,,,,,,,,,,j,1,0.2862808810023125,,,118,001,2019_Mar_18_1530,test_run,3.0.6,59.986271178361655,
132,ENW,ENW_42_hamsforing_150219.wav,n,c ,,,,,0,14,14,131,,,,,,,,,,,,,,,n,1,0.7018712320132181,,,118,001,2019_Mar_18_1530,test_run,3.0.6,59.986271178361655,
60,EFW,EFW_30_officiella_070319.wav,j,c ,,,,,0,15,15,59,,,,,,,,,,,,,,,j,1,0.5024585140054114,,,118,001,2019_Mar_18_1530,test_run,3.0.6,59.986271178361655,
55,EFW,EFW_25_informera_070319.wav,j,c ,,,,,0,16,16,54,,,,,,,,,,,,,,,j,1,0.5189615330018569,,,118,001,2019_Mar_18_1530,test_run,3.0.6,59.986271178361655,
98,ENW,ENW_8_haväras_150219.wav,n,c ,,,,,0,17,17,97,,,,,,,,,,,,,,,n,1,0.4188170070119668,,,118,001,2019_Mar_18_1530,test_run,3.0.6,59.986271178361655,
169,ENW,ENW_79_lyxmare_150219.wav,n,c ,,,,,0,18,18,168,,,,,,,,,,,,,,,n,1,0.369477750005899,,,118,001,2019_Mar_18_1530,test_run,3.0.6,59.986271178361655,
114,ENW,ENW_24_samjoner_150219.wav,n,c ,,,,,0,19,19,113,,,,,,,,,,,,,,,n,1,0.452330122992862,,,118,001,2019_Mar_18_1530,test_run,3.0.6,59.986271178361655,
21,ECW,ECW_21_husera_070319.wav,j,c ,,,,,0,20,20,20,,,,,,,,,,,,,,,j,1,0.3025957960053347,,,118,001,2019_Mar_18_1530,test_run,3.0.6,59.986271178361655,
135,ENW,ENW_45_fammoarens_150219.wav,n,c ,,,,,0,21,21,134,,,,,,,,,,,,,,,n,1,0.3855391239922028,,,118,001,2019_Mar_18_1530,test_run,3.0.6,59.986271178361655,
17,ECW,ECW_17_majonnaas_070319.wav,j,c ,,,,,0,22,22,16,,,,,,,,,,,,,,,j,1,0.3530702040006872,,,118,001,2019_Mar_18_1530,test_run,3.0.6,59.986271178361655,
47,EFW,EFW_17_januari_070319.wav,j,c ,,,,,0,23,23,46,,,,,,,,,,,,,,,j,1,0.26884133799467236,,,118,001,2019_Mar_18_1530,test_run,3.0.6,59.986271178361655,
162,ENW,ENW_72_urskecken_150219.wav,n,c ,,,,,0,24,24,161,,,,,,,,,,,,,,,n,1,0.33575359600945376,,,118,001,2019_Mar_18_1530,test_run,3.0.6,59.986271178361655,
67,EFW,EFW_37_foervisso_070319.wav,j,c ,,,,,0,25,25,66,,,,,,,,,,,,,,,j,1,0.2857577489921823,,,118,001,2019_Mar_18_1530,test_run,3.0.6,59.986271178361655,
172,ENW,ENW_82_värskappa_150219.wav,n,c ,,,,,0,26,26,171,,,,,,,,,,,,,,,n,1,0.35191388698876835,,,118,001,2019_Mar_18_1530,test_run,3.0.6,59.986271178361655,
68,EFW,EFW_38_foerefoell_070319.wav,j,c ,,,,,0,27,27,67,,,,,,,,,,,,,,,j,1,0.2696512469847221,,,118,001,2019_Mar_18_1530,test_run,3.0.6,59.986271178361655,
42,EFW,EFW_12_foeremoal_070319.wav,j,c ,,,,,0,28,28,41,,,,,,,,,,,,,,,j,1,0.2861126080097165,,,118,001,2019_Mar_18_1530,test_run,3.0.6,59.986271178361655,
20,ECW,ECW_20_sommarspel_070319.wav,j,c ,,,,,0,29,29,19,,,,,,,,,,,,,,,j,1,0.5532956369861495,,,118,001,2019_Mar_18_1530,test_run,3.0.6,59.986271178361655,
1,ECW,ECW_1_anka_070319.wav,j,c ,,,,,0,30,30,0,,,,,,,,,,,,,,,j,1,0.33367613799055107,,,118,001,2019_Mar_18_1530,test_run,3.0.6,59.986271178361655,
116,ENW,ENW_26_anufera_150219.wav,n,c ,,,,,0,31,31,115,,,,,,,,,,,,,,,n,1,0.31720137302181683,,,118,001,2019_Mar_18_1530,test_run,3.0.6,59.986271178361655,
180,ENW,ENW_90_skrivinar_150219.wav,n,c ,,,,,0,32,32,179,,,,,,,,,,,,,,,n,1,0.2857709120144136,,,118,001,2019_Mar_18_1530,test_run,3.0.6,59.986271178361655,
24,ECW,ECW_24_fysiker_070319.wav,j,c ,,,,,0,33,33,23,,,,,,,,,,,,,,,j,1,0.3024975930165965,,,118,001,2019_Mar_18_1530,test_run,3.0.6,59.986271178361655,
130,ENW,ENW_40_knipackar_150219.wav,n,c ,,,,,0,34,34,129,,,,,,,,,,,,,,,n,1,0.26892320899059996,,,118,001,2019_Mar_18_1530,test_run,3.0.6,59.986271178361655,
138,ENW,ENW_48_skyjamsen_150219.wav,n,c ,,,,,0,35,35,137,,,,,,,,,,,,,,,n,1,0.30261433200212196,,,118,001,2019_Mar_18_1530,test_run,3.0.6,59.986271178361655,
148,ENW,ENW_58_malvossa_150219.wav,n,c ,,,,,0,36,36,147,,,,,,,,,,,,,,,n,1,0.28564229799667373,,,118,001,2019_Mar_18_1530,test_run,3.0.6,59.986271178361655,
101,ENW,ENW_11_fränna_150219.wav,n,c ,,,,,0,37,37,100,,,,,,,,,,,,,,,n,1,0.4358415199967567,,,118,001,2019_Mar_18_1530,test_run,3.0.6,59.986271178361655,
107,ENW,ENW_17_kopynnor_150219.wav,n,c ,,,,,0,38,38,106,,,,,,,,,,,,,,,n,1,0.4027336980216205,,,118,001,2019_Mar_18_1530,test_run,3.0.6,59.986271178361655,
131,ENW,ENW_41_vessmaren_150219.wav,n,c ,,,,,0,39,39,130,,,,,,,,,,,,,,,n,1,0.285639588983031,,,118,001,2019_Mar_18_1530,test_run,3.0.6,59.986271178361655,
64,EFW,EFW_34_sommar_070319.wav,j,c ,,,,,0,40,40,63,,,,,,,,,,,,,,,j,1,0.26929890699102543,,,118,001,2019_Mar_18_1530,test_run,3.0.6,59.986271178361655,
82,EFW,EFW_52_framhoalla_070319.wav,j,c ,,,,,0,41,41,81,,,,,,,,,,,,,,,j,1,0.2698248020024039,,,118,001,2019_Mar_18_1530,test_run,3.0.6,59.986271178361655,
36,EFW,EFW_6_massa_070319.wav,j,c ,,,,,0,42,42,35,,,,,,,,,,,,,,,j,1,0.2859235949872527,,,118,001,2019_Mar_18_1530,test_run,3.0.6,59.986271178361655,
83,EFW,EFW_53_sovrum_070319.wav,j,c ,,,,,0,43,43,82,,,,,,,,,,,,,,,j,1,0.28542081598425284,,,118,001,2019_Mar_18_1530,test_run,3.0.6,59.986271178361655,
124,ENW,ENW_34_jomera_150219.wav,n,c ,,,,,0,44,44,123,,,,,,,,,,,,,,,j,0,1.4522345880104695,,,118,001,2019_Mar_18_1530,test_run,3.0.6,59.986271178361655,
115,ENW,ENW_25_affierar_150219.wav,n,c ,,,,,0,45,45,114,,,,,,,,,,,,,,,n,1,0.3022595660004299,,,118,001,2019_Mar_18_1530,test_run,3.0.6,59.986271178361655,
74,EFW,EFW_44_ljusa_070319.wav,j,c ,,,,,0,46,46,73,,,,,,,,,,,,,,,j,1,1.1852609069901519,,,118,001,2019_Mar_18_1530,test_run,3.0.6,59.986271178361655,
108,ENW,ENW_18_moalursena_150219.wav,n,c ,,,,,0,47,47,107,,,,,,,,,,,,,,,n,1,0.3024729160242714,,,118,001,2019_Mar_18_1530,test_run,3.0.6,59.986271178361655,
12,ECW,ECW_12_moehippa_070319.wav,j,c ,,,,,0,48,48,11,,,,,,,,,,,,,,,j,1,0.2693996179732494,,,118,001,2019_Mar_18_1530,test_run,3.0.6,59.986271178361655,
63,EFW,EFW_33_elva_070319.wav,j,c ,,,,,0,49,49,62,,,,,,,,,,,,,,,j,1,0.2689625319908373,,,118,001,2019_Mar_18_1530,test_run,3.0.6,59.986271178361655,
144,ENW,ENW_54_lomering_150219.wav,n,c ,,,,,0,50,50,143,,,,,,,,,,,,,,,n,1,0.3030015859985724,,,118,001,2019_Mar_18_1530,test_run,3.0.6,59.986271178361655,
161,ENW,ENW_71_forskäckla_150219.wav,n,c ,,,,,0,51,51,160,,,,,,,,,,,,,,,n,1,0.3529604719951749,,,118,001,2019_Mar_18_1530,test_run,3.0.6,59.986271178361655,
81,EFW,EFW_51_seminarier_070319.wav,j,c ,,,,,0,52,52,80,,,,,,,,,,,,,,,j,1,0.26916102701216005,,,118,001,2019_Mar_18_1530,test_run,3.0.6,59.986271178361655,
33,EFW,EFW_3_familjen_070319.wav,j,c ,,,,,0,53,53,32,,,,,,,,,,,,,,,j,1,0.25296447798609734,,,118,001,2019_Mar_18_1530,test_run,3.0.6,59.986271178361655,
8,ECW,ECW_8_fryshus_070319.wav,j,c ,,,,,0,54,54,7,,,,,,,,,,,,,,,j,1,0.2689415570057463,,,118,001,2019_Mar_18_1530,test_run,3.0.6,59.986271178361655,
178,ENW,ENW_88_marsifen_150219.wav,n,c ,,,,,0,55,55,177,,,,,,,,,,,,,,,n,1,0.2856326170149259,,,118,001,2019_Mar_18_1530,test_run,3.0.6,59.986271178361655,
149,ENW,ENW_59_kyrkmänning_150219.wav,n,c ,,,,,0,56,56,148,,,,,,,,,,,,,,,j,0,1.03572906498448,,,118,001,2019_Mar_18_1530,test_run,3.0.6,59.986271178361655,
84,EFW,EFW_54_romaner_070319.wav,j,c ,,,,,0,57,57,83,,,,,,,,,,,,,,,j,1,0.23575269599677995,,,118,001,2019_Mar_18_1530,test_run,3.0.6,59.986271178361655,
92,ENW,ENW_2_overralka_150219.wav,n,c ,,,,,0,58,58,91,,,,,,,,,,,,,,,n,1,0.2691559079976287,,,118,001,2019_Mar_18_1530,test_run,3.0.6,59.986271178361655,
151,ENW,ENW_61_myckskina_150219.wav,n,c ,,,,,0,59,59,150,,,,,,,,,,,,,,,n,1,0.3186925370246172,,,118,001,2019_Mar_18_1530,test_run,3.0.6,59.986271178361655,
65,EFW,EFW_35_affaarer_070319.wav,j,c ,,,,,0,60,60,64,,,,,,,,,,,,,,,j,1,0.25262547697639093,,,118,001,2019_Mar_18_1530,test_run,3.0.6,59.986271178361655,
153,ENW,ENW_63_femyrisk_150219.wav,n,c ,,,,,0,61,61,152,,,,,,,,,,,,,,,n,1,0.26707214600173756,,,118,001,2019_Mar_18_1530,test_run,3.0.6,59.986271178361655,
175,ENW,ENW_85_forlinna_150219.wav,n,c ,,,,,0,62,62,174,,,,,,,,,,,,,,,n,1,0.26899805400171317,,,118,001,2019_Mar_18_1530,test_run,3.0.6,59.986271178361655,
59,EFW,EFW_29_formen_070319.wav,j,c ,,,,,0,63,63,58,,,,,,,,,,,,,,,j,1,0.25255762500455603,,,118,001,2019_Mar_18_1530,test_run,3.0.6,59.986271178361655,
122,ENW,ENW_32_fonering_150219.wav,n,c ,,,,,0,64,64,121,,,,,,,,,,,,,,,n,1,0.25205840199487284,,,118,001,2019_Mar_18_1530,test_run,3.0.6,59.986271178361655,
4,ECW,ECW_4_skraalla_070319.wav,j,c ,,,,,0,65,65,3,,,,,,,,,,,,,,,j,1,0.28568043699488044,,,118,001,2019_Mar_18_1530,test_run,3.0.6,59.986271178361655,
126,ENW,ENW_36_skymlosa_150219.wav,n,c ,,,,,0,66,66,125,,,,,,,,,,,,,,,n,1,0.5022251989867073,,,118,001,2019_Mar_18_1530,test_run,3.0.6,59.986271178361655,
145,ENW,ENW_55_invaskin_150219.wav,n,c ,,,,,0,67,67,144,,,,,,,,,,,,,,,n,1,0.25275210599647835,,,118,001,2019_Mar_18_1530,test_run,3.0.6,59.986271178361655,
85,EFW,EFW_55_oroar_070319.wav,j,c ,,,,,0,68,68,84,,,,,,,,,,,,,,,j,1,0.25231436200556345,,,118,001,2019_Mar_18_1530,test_run,3.0.6,59.986271178361655,
50,EFW,EFW_20_fenomen_070319.wav,j,c ,,,,,0,69,69,49,,,,,,,,,,,,,,,j,1,0.25232177699217573,,,118,001,2019_Mar_18_1530,test_run,3.0.6,59.986271178361655,
142,ENW,ENW_52_filofyll_150219.wav,n,c ,,,,,0,70,70,141,,,,,,,,,,,,,,,n,1,0.267152813001303,,,118,001,2019_Mar_18_1530,test_run,3.0.6,59.986271178361655,
14,ECW,ECW_14_excellens_070319.wav,j,c ,,,,,0,71,71,13,,,,,,,,,,,,,,,j,1,0.2523716930008959,,,118,001,2019_Mar_18_1530,test_run,3.0.6,59.986271178361655,
46,EFW,EFW_16_lyssna_070319.wav,j,c ,,,,,0,72,72,45,,,,,,,,,,,,,,,j,1,0.26937995399930514,,,118,001,2019_Mar_18_1530,test_run,3.0.6,59.986271178361655,
38,EFW,EFW_8_samman_070319.wav,j,c ,,,,,0,73,73,37,,,,,,,,,,,,,,,n,0,1.0024589539971203,,,118,001,2019_Mar_18_1530,test_run,3.0.6,59.986271178361655,
100,ENW,ENW_10_skinnamer_150219.wav,n,c ,,,,,0,74,74,99,,,,,,,,,,,,,,,n,1,0.2688065779802855,,,118,001,2019_Mar_18_1530,test_run,3.0.6,59.986271178361655,
15,ECW,ECW_15_tjuvarna_070319.wav,j,c ,,,,,0,75,75,14,,,,,,,,,,,,,,,j,1,0.25253296401933767,,,118,001,2019_Mar_18_1530,test_run,3.0.6,59.986271178361655,
140,ENW,ENW_50_omsänare_150219.wav,n,c ,,,,,0,76,76,139,,,,,,,,,,,,,,,n,1,0.2855504250037484,,,118,001,2019_Mar_18_1530,test_run,3.0.6,59.986271178361655,
134,ENW,ENW_44_inlivna_150219.wav,n,c ,,,,,0,77,77,133,,,,,,,,,,,,,,,n,1,0.36917074499069713,,,118,001,2019_Mar_18_1530,test_run,3.0.6,59.986271178361655,
78,EFW,EFW_48_varifroan_070319.wav,j,c ,,,,,0,78,78,77,,,,,,,,,,,,,,,j,1,0.28573829602100886,,,118,001,2019_Mar_18_1530,test_run,3.0.6,59.986271178361655,
179,ENW,ENW_89_mikenspoan_150219.wav,n,c ,,,,,0,79,79,178,,,,,,,,,,,,,,,n,1,0.28555380398756824,,,118,001,2019_Mar_18_1530,test_run,3.0.6,59.986271178361655,
80,EFW,EFW_50_snaalla_070319.wav,j,c ,,,,,0,80,80,79,,,,,,,,,,,,,,,j,1,0.2860972740163561,,,118,001,2019_Mar_18_1530,test_run,3.0.6,59.986271178361655,
128,ENW,ENW_38_roakanier_150219.wav,n,c ,,,,,0,81,81,127,,,,,,,,,,,,,,,n,1,0.2858143420016859,,,118,001,2019_Mar_18_1530,test_run,3.0.6,59.986271178361655,
154,ENW,ENW_64_havskvare_150219.wav,n,c ,,,,,0,82,82,153,,,,,,,,,,,,,,,n,1,0.26904629400814883,,,118,001,2019_Mar_18_1530,test_run,3.0.6,59.986271178361655,
23,ECW,ECW_23_maximal_070319.wav,j,c ,,,,,0,83,83,22,,,,,,,,,,,,,,,j,1,0.2692396720231045,,,118,001,2019_Mar_18_1530,test_run,3.0.6,59.986271178361655,
127,ENW,ENW_37_spallrivet_150219.wav,n,c ,,,,,0,84,84,126,,,,,,,,,,,,,,,n,1,0.2858871229982469,,,118,001,2019_Mar_18_1530,test_run,3.0.6,59.986271178361655,
109,ENW,ENW_19_morloren_150219.wav,n,c ,,,,,0,85,85,108,,,,,,,,,,,,,,,n,1,0.3693040439975448,,,118,001,2019_Mar_18_1530,test_run,3.0.6,59.986271178361655,
102,ENW,ENW_12_snälmola_150219.wav,n,c ,,,,,0,86,86,101,,,,,,,,,,,,,,,n,1,0.26966643301420845,,,118,001,2019_Mar_18_1530,test_run,3.0.6,59.986271178361655,
32,EFW,EFW_2_snarare_070319.wav,j,c ,,,,,0,87,87,31,,,,,,,,,,,,,,,j,1,0.23539832001551986,,,118,001,2019_Mar_18_1530,test_run,3.0.6,59.986271178361655,
165,ENW,ENW_75_foarskining_150219.wav,n,c ,,,,,0,88,88,164,,,,,,,,,,,,,,,n,1,0.2859038870083168,,,118,001,2019_Mar_18_1530,test_run,3.0.6,59.986271178361655,
13,ECW,ECW_13_kanonform_070319.wav,j,c ,,,,,0,89,89,12,,,,,,,,,,,,,,,j,1,0.2522951310093049,,,118,001,2019_Mar_18_1530,test_run,3.0.6,59.986271178361655,
94,ENW,ENW_4_kyllfaren_150219.wav,n,c ,,,,,0,90,90,93,,,,,,,,,,,,,,,n,1,0.3362986849970184,,,118,001,2019_Mar_18_1530,test_run,3.0.6,59.986271178361655,
71,EFW,EFW_41_infinna_070319.wav,j,c ,,,,,0,91,91,70,,,,,,,,,,,,,,,j,1,0.25269280999782495,,,118,001,2019_Mar_18_1530,test_run,3.0.6,59.986271178361655,
66,EFW,EFW_36_haarifroan_070319.wav,j,c ,,,,,0,92,92,65,,,,,,,,,,,,,,,j,1,0.302258140000049,,,118,001,2019_Mar_18_1530,test_run,3.0.6,59.986271178361655,
45,EFW,EFW_15_oeverens_070319.wav,j,c ,,,,,0,93,93,44,,,,,,,,,,,,,,,j,1,0.2520393949816935,,,118,001,2019_Mar_18_1530,test_run,3.0.6,59.986271178361655,
77,EFW,EFW_47_invoanare_070319.wav,j,c ,,,,,0,94,94,76,,,,,,,,,,,,,,,j,1,0.4193168439960573,,,118,001,2019_Mar_18_1530,test_run,3.0.6,59.986271178361655,
164,ENW,ENW_74_malsera_150219.wav,n,c ,,,,,0,95,95,163,,,,,,,,,,,,,,,n,1,0.3027403489977587,,,118,001,2019_Mar_18_1530,test_run,3.0.6,59.986271178361655,
86,EFW,EFW_56_mormor_070319.wav,j,c ,,,,,0,96,96,85,,,,,,,,,,,,,,,j,1,0.23589089198503643,,,118,001,2019_Mar_18_1530,test_run,3.0.6,59.986271178361655,
31,EFW,EFW_1_allmaan_070319.wav,j,c ,,,,,0,97,97,30,,,,,,,,,,,,,,,j,1,0.2696121650224086,,,118,001,2019_Mar_18_1530,test_run,3.0.6,59.986271178361655,
70,EFW,EFW_40_miljoner_070319.wav,j,c ,,,,,0,98,98,69,,,,,,,,,,,,,,,j,1,0.2520520999969449,,,118,001,2019_Mar_18_1530,test_run,3.0.6,59.986271178361655,
53,EFW,EFW_23_aamne_070319.wav,j,c ,,,,,0,99,99,52,,,,,,,,,,,,,,,j,1,0.33582409800146706,,,118,001,2019_Mar_18_1530,test_run,3.0.6,59.986271178361655,
123,ENW,ENW_33_froamation_150219.wav,n,c ,,,,,0,100,100,122,,,,,,,,,,,,,,,n,1,0.23575603700010106,,,118,001,2019_Mar_18_1530,test_run,3.0.6,59.986271178361655,
156,ENW,ENW_66_voarsmenar_150219.wav,n,c ,,,,,0,101,101,155,,,,,,,,,,,,,,,n,1,0.2695918009849265,,,118,001,2019_Mar_18_1530,test_run,3.0.6,59.986271178361655,
113,ENW,ENW_23_allsänning_150219.wav,n,c ,,,,,0,102,102,112,,,,,,,,,,,,,,,n,1,0.18597370298812166,,,118,001,2019_Mar_18_1530,test_run,3.0.6,59.986271178361655,
34,EFW,EFW_4_foerminska_070319.wav,j,c ,,,,,0,103,103,33,,,,,,,,,,,,,,,j,1,0.23563169600674883,,,118,001,2019_Mar_18_1530,test_run,3.0.6,59.986271178361655,
72,EFW,EFW_42_naavaron_070319.wav,j,c ,,,,,0,104,104,71,,,,,,,,,,,,,,,j,1,0.3021732119959779,,,118,001,2019_Mar_18_1530,test_run,3.0.6,59.986271178361655,
22,ECW,ECW_22_anonyma_070319.wav,j,c ,,,,,0,105,105,21,,,,,,,,,,,,,,,j,1,0.3686070129915606,,,118,001,2019_Mar_18_1530,test_run,3.0.6,59.986271178361655,
136,ENW,ENW_46_pommera_150219.wav,n,c ,,,,,0,106,106,135,,,,,,,,,,,,,,,n,1,0.26931150699965656,,,118,001,2019_Mar_18_1530,test_run,3.0.6,59.986271178361655,
25,ECW,ECW_25_oeverfoeras_070319.wav,j,c ,,,,,0,107,107,24,,,,,,,,,,,,,,,j,1,0.25253987600444816,,,118,001,2019_Mar_18_1530,test_run,3.0.6,59.986271178361655,
176,ENW,ENW_86_heloppsin_150219.wav,n,c ,,,,,0,108,108,175,,,,,,,,,,,,,,,n,1,0.26719432399841025,,,118,001,2019_Mar_18_1530,test_run,3.0.6,59.986271178361655,
16,ECW,ECW_16_skinskalle_070319.wav,j,c ,,,,,0,109,109,15,,,,,,,,,,,,,,,j,1,0.2522618410002906,,,118,001,2019_Mar_18_1530,test_run,3.0.6,59.986271178361655,
139,ENW,ENW_49_hälskrena_150219.wav,n,c ,,,,,0,110,110,138,,,,,,,,,,,,,,,n,1,0.5032019749924075,,,118,001,2019_Mar_18_1530,test_run,3.0.6,59.986271178361655,
7,ECW,ECW_7_marin_070319.wav,j,c ,,,,,0,111,111,6,,,,,,,,,,,,,,,j,1,0.25226501299766824,,,118,001,2019_Mar_18_1530,test_run,3.0.6,59.986271178361655,
6,ECW,ECW_6_sila_070319.wav,j,c ,,,,,0,112,112,5,,,,,,,,,,,,,,,n,0,0.3022955000051297,,,118,001,2019_Mar_18_1530,test_run,3.0.6,59.986271178361655,
58,EFW,EFW_28_olja_070319.wav,j,c ,,,,,0,113,113,57,,,,,,,,,,,,,,,j,1,0.26931586998398416,,,118,001,2019_Mar_18_1530,test_run,3.0.6,59.986271178361655,
150,ENW,ENW_60_lackpenar_150219.wav,n,c ,,,,,0,114,114,149,,,,,,,,,,,,,,,n,1,0.28540672099916264,,,118,001,2019_Mar_18_1530,test_run,3.0.6,59.986271178361655,
129,ENW,ENW_39_ljusonar_150219.wav,n,c ,,,,,0,115,115,128,,,,,,,,,,,,,,,n,1,0.3361473180120811,,,118,001,2019_Mar_18_1530,test_run,3.0.6,59.986271178361655,
95,ENW,ENW_5_spoamisk_150219.wav,n,c ,,,,,0,116,116,94,,,,,,,,,,,,,,,n,1,0.3354521199944429,,,118,001,2019_Mar_18_1530,test_run,3.0.6,59.986271178361655,
69,EFW,EFW_39_foersvara_070319.wav,j,c ,,,,,0,117,117,68,,,,,,,,,,,,,,,j,1,0.286304717999883,,,118,001,2019_Mar_18_1530,test_run,3.0.6,59.986271178361655,
111,ENW,ENW_21_tjulning_150219.wav,n,c ,,,,,0,118,118,110,,,,,,,,,,,,,,,n,1,0.535600974020781,,,118,001,2019_Mar_18_1530,test_run,3.0.6,59.986271178361655,
10,ECW,ECW_10_flisa_070319.wav,j,c ,,,,,0,119,119,9,,,,,,,,,,,,,,,j,1,0.21706785098649561,,,118,001,2019_Mar_18_1530,test_run,3.0.6,59.986271178361655,
112,ENW,ENW_22_fjäserna_150219.wav,n,c ,,,,,0,120,120,111,,,,,,,,,,,,,,,j,0,0.23575798000092618,,,118,001,2019_Mar_18_1530,test_run,3.0.6,59.986271178361655,
147,ENW,ENW_57_flovanning_150219.wav,n,c ,,,,,0,121,121,146,,,,,,,,,,,,,,,n,1,0.2521670479909517,,,118,001,2019_Mar_18_1530,test_run,3.0.6,59.986271178361655,
28,ECW,ECW_28_maskinerna_070319.wav,j,c ,,,,,0,122,122,27,,,,,,,,,,,,,,,j,1,0.2689158240100369,,,118,001,2019_Mar_18_1530,test_run,3.0.6,59.986271178361655,
73,EFW,EFW_43_halvoar_070319.wav,j,c ,,,,,0,123,123,72,,,,,,,,,,,,,,,n,0,0.2688815290166531,,,118,001,2019_Mar_18_1530,test_run,3.0.6,59.986271178361655,
106,ENW,ENW_16_rolinkar_150219.wav,n,c ,,,,,0,124,124,105,,,,,,,,,,,,,,,n,1,0.3523472640081309,,,118,001,2019_Mar_18_1530,test_run,3.0.6,59.986271178361655,
159,ENW,ENW_69_mjohusa_150219.wav,n,c ,,,,,0,125,125,158,,,,,,,,,,,,,,,n,1,0.2671492160006892,,,118,001,2019_Mar_18_1530,test_run,3.0.6,59.986271178361655,
99,ENW,ENW_9_samlemor_150219.wav,n,c ,,,,,0,126,126,98,,,,,,,,,,,,,,,n,1,0.2690201320219785,,,118,001,2019_Mar_18_1530,test_run,3.0.6,59.986271178361655,
40,EFW,EFW_10_laarare_070319.wav,j,c ,,,,,0,127,127,39,,,,,,,,,,,,,,,j,1,0.2354958659852855,,,118,001,2019_Mar_18_1530,test_run,3.0.6,59.986271178361655,
87,EFW,EFW_57_loenerna_070319.wav,j,c ,,,,,0,128,128,86,,,,,,,,,,,,,,,j,1,0.3190356710110791,,,118,001,2019_Mar_18_1530,test_run,3.0.6,59.986271178361655,
173,ENW,ENW_83_fyrskovar_150219.wav,n,c ,,,,,0,129,129,172,,,,,,,,,,,,,,,n,1,0.23557389099732973,,,118,001,2019_Mar_18_1530,test_run,3.0.6,59.986271178361655,
104,ENW,ENW_14_kärmenor_150219.wav,n,c ,,,,,0,130,130,103,,,,,,,,,,,,,,,n,1,0.25287515099626034,,,118,001,2019_Mar_18_1530,test_run,3.0.6,59.986271178361655,
155,ENW,ENW_65_hamfylla_150219.wav,n,c ,,,,,0,131,131,154,,,,,,,,,,,,,,,n,1,0.23562484799185768,,,118,001,2019_Mar_18_1530,test_run,3.0.6,59.986271178361655,
119,ENW,ENW_29_uppskira_150219.wav,n,c ,,,,,0,132,132,118,,,,,,,,,,,,,,,n,1,0.619070318993181,,,118,001,2019_Mar_18_1530,test_run,3.0.6,59.986271178361655,
152,ENW,ENW_62_ljullepilja_150219.wav,n,c ,,,,,0,133,133,151,,,,,,,,,,,,,,,n,1,0.219233816023916,,,118,001,2019_Mar_18_1530,test_run,3.0.6,59.986271178361655,
160,ENW,ENW_70_roklarner_150219.wav,n,c ,,,,,0,134,134,159,,,,,,,,,,,,,,,n,1,0.2359275439812336,,,118,001,2019_Mar_18_1530,test_run,3.0.6,59.986271178361655,
75,EFW,EFW_45_innanfoer_070319.wav,j,c ,,,,,0,135,135,74,,,,,,,,,,,,,,,j,1,0.06958038298762403,,,118,001,2019_Mar_18_1530,test_run,3.0.6,59.986271178361655,
105,ENW,ENW_15_forfeckla_150219.wav,n,c ,,,,,0,136,136,104,,,,,,,,,,,,,,,n,1,0.2194823529862333,,,118,001,2019_Mar_18_1530,test_run,3.0.6,59.986271178361655,
9,ECW,ECW_9_spinna_070319.wav,j,c ,,,,,0,137,137,8,,,,,,,,,,,,,,,j,1,0.2690738359815441,,,118,001,2019_Mar_18_1530,test_run,3.0.6,59.986271178361655,
133,ENW,ENW_43_axalän_150219.wav,n,c ,,,,,0,138,138,132,,,,,,,,,,,,,,,n,1,0.2691560599778313,,,118,001,2019_Mar_18_1530,test_run,3.0.6,59.986271178361655,
26,ECW,ECW_26_kroenikoeren_070319.wav,j,c ,,,,,0,139,139,25,,,,,,,,,,,,,,,j,1,0.252715751004871,,,118,001,2019_Mar_18_1530,test_run,3.0.6,59.986271178361655,
61,EFW,EFW_31_jaamfoera_070319.wav,j,c ,,,,,0,140,140,60,,,,,,,,,,,,,,,j,1,0.18556651900871657,,,118,001,2019_Mar_18_1530,test_run,3.0.6,59.986271178361655,
137,ENW,ENW_47_oafläppen_150219.wav,n,c ,,,,,0,141,141,136,,,,,,,,,,,,,,,n,1,0.019471012987196445,,,118,001,2019_Mar_18_1530,test_run,3.0.6,59.986271178361655,
56,EFW,EFW_26_armarna_070319.wav,j,c ,,,,,0,142,142,55,,,,,,,,,,,,,,,j,1,0.235609477997059,,,118,001,2019_Mar_18_1530,test_run,3.0.6,59.986271178361655,
174,ENW,ENW_84_hurmarna_150219.wav,n,c ,,,,,0,143,143,173,,,,,,,,,,,,,,,n,1,0.40201375700416975,,,118,001,2019_Mar_18_1530,test_run,3.0.6,59.986271178361655,
43,EFW,EFW_13_elever_070319.wav,j,c ,,,,,0,144,144,42,,,,,,,,,,,,,,,j,1,0.20256922399858013,,,118,001,2019_Mar_18_1530,test_run,3.0.6,59.986271178361655,
48,EFW,EFW_18_nummer_070319.wav,j,c ,,,,,0,145,145,47,,,,,,,,,,,,,,,j,1,0.2690264569828287,,,118,001,2019_Mar_18_1530,test_run,3.0.6,59.986271178361655,
54,EFW,EFW_24_foersvinner_070319.wav,j,c ,,,,,0,146,146,53,,,,,,,,,,,,,,,j,1,0.26952265098225325,,,118,001,2019_Mar_18_1530,test_run,3.0.6,59.986271178361655,
29,ECW,ECW_29_mejerier_070319.wav,j,c ,,,,,0,147,147,28,,,,,,,,,,,,,,,j,1,0.25232945100287907,,,118,001,2019_Mar_18_1530,test_run,3.0.6,59.986271178361655,
163,ENW,ENW_73_vimmankalla_150219.wav,n,c ,,,,,0,148,148,162,,,,,,,,,,,,,,,n,1,0.20208252102020197,,,118,001,2019_Mar_18_1530,test_run,3.0.6,59.986271178361655,
5,ECW,ECW_5_kamma_070319.wav,j,c ,,,,,0,149,149,4,,,,,,,,,,,,,,,j,1,0.3189941820164677,,,118,001,2019_Mar_18_1530,test_run,3.0.6,59.986271178361655,
2,ECW,ECW_2_hinna_070319.wav,j,c ,,,,,0,150,150,1,,,,,,,,,,,,,,,j,1,0.2691257400147151,,,118,001,2019_Mar_18_1530,test_run,3.0.6,59.986271178361655,
39,EFW,EFW_9_infektion_070319.wav,j,c ,,,,,0,151,151,38,,,,,,,,,,,,,,,j,1,0.2693411690124776,,,118,001,2019_Mar_18_1530,test_run,3.0.6,59.986271178361655,
157,ENW,ENW_67_oafreskar_150219.wav,n,c ,,,,,0,152,152,156,,,,,,,,,,,,,,,n,1,0.26890926001942717,,,118,001,2019_Mar_18_1530,test_run,3.0.6,59.986271178361655,
121,ENW,ENW_31_romation_150219.wav,n,c ,,,,,0,153,153,120,,,,,,,,,,,,,,,n,1,0.2689028489985503,,,118,001,2019_Mar_18_1530,test_run,3.0.6,59.986271178361655,
146,ENW,ENW_56_lysskarna_150219.wav,n,c ,,,,,0,154,154,145,,,,,,,,,,,,,,,n,1,0.2504915950121358,,,118,001,2019_Mar_18_1530,test_run,3.0.6,59.986271178361655,
11,ECW,ECW_11_foersoeka_070319.wav,j,c ,,,,,0,155,155,10,,,,,,,,,,,,,,,j,1,0.2521085170155857,,,118,001,2019_Mar_18_1530,test_run,3.0.6,59.986271178361655,
118,ENW,ENW_28_läkermask_150219.wav,n,c ,,,,,0,156,156,117,,,,,,,,,,,,,,,n,1,0.3192284069955349,,,118,001,2019_Mar_18_1530,test_run,3.0.6,59.986271178361655,
168,ENW,ENW_78_morvinder_150219.wav,n,c ,,,,,0,157,157,167,,,,,,,,,,,,,,,n,1,0.36896924799657427,,,118,001,2019_Mar_18_1530,test_run,3.0.6,59.986271178361655,
3,ECW,ECW_3_virus_070319.wav,j,c ,,,,,0,158,158,2,,,,,,,,,,,,,,,j,1,0.28622068898403086,,,118,001,2019_Mar_18_1530,test_run,3.0.6,59.986271178361655,
93,ENW,ENW_3_vissorens_150219.wav,n,c ,,,,,0,159,159,92,,,,,,,,,,,,,,,n,1,0.26946850499371067,,,118,001,2019_Mar_18_1530,test_run,3.0.6,59.986271178361655,
170,ENW,ENW_80_tjarfera_150219.wav,n,c ,,,,,0,160,160,169,,,,,,,,,,,,,,,n,1,0.0357305399957113,,,118,001,2019_Mar_18_1530,test_run,3.0.6,59.986271178361655,
166,ENW,ENW_76_omfläskor_150219.wav,n,c ,,,,,0,161,161,165,,,,,,,,,,,,,,,n,1,0.23529699398204684,,,118,001,2019_Mar_18_1530,test_run,3.0.6,59.986271178361655,
52,EFW,EFW_22_normala_070319.wav,j,c ,,,,,0,162,162,51,,,,,,,,,,,,,,,j,1,0.2358385199913755,,,118,001,2019_Mar_18_1530,test_run,3.0.6,59.986271178361655,
57,EFW,EFW_27_analysera_070319.wav,j,c ,,,,,0,163,163,56,,,,,,,,,,,,,,,j,1,0.2670090360043105,,,118,001,2019_Mar_18_1530,test_run,3.0.6,59.986271178361655,
167,ENW,ENW_77_somfera_150219.wav,n,c ,,,,,0,164,164,166,,,,,,,,,,,,,,,n,1,0.2860229699872434,,,118,001,2019_Mar_18_1530,test_run,3.0.6,59.986271178361655,
171,ENW,ENW_81_persifera_150219.wav,n,c ,,,,,0,165,165,170,,,,,,,,,,,,,,,n,1,0.3525830590224359,,,118,001,2019_Mar_18_1530,test_run,3.0.6,59.986271178361655,
110,ENW,ENW_20_invonen_150219.wav,n,c ,,,,,0,166,166,109,,,,,,,,,,,,,,,j,0,0.26855254397378303,,,118,001,2019_Mar_18_1530,test_run,3.0.6,59.986271178361655,
35,EFW,EFW_5_samhaalle_070319.wav,j,c ,,,,,0,167,167,34,,,,,,,,,,,,,,,j,1,0.23628482801723294,,,118,001,2019_Mar_18_1530,test_run,3.0.6,59.986271178361655,
44,EFW,EFW_14_foersoeken_070319.wav,j,c ,,,,,0,168,168,43,,,,,,,,,,,,,,,j,1,0.25258651399053633,,,118,001,2019_Mar_18_1530,test_run,3.0.6,59.986271178361655,
62,EFW,EFW_32_fyller_070319.wav,j,c ,,,,,0,169,169,61,,,,,,,,,,,,,,,n,0,0.41927094402490184,,,118,001,2019_Mar_18_1530,test_run,3.0.6,59.986271178361655,
158,ENW,ENW_68_presionar_150219.wav,n,c ,,,,,0,170,170,157,,,,,,,,,,,,,,,n,1,0.236064691998763,,,118,001,2019_Mar_18_1530,test_run,3.0.6,59.986271178361655,
97,ENW,ENW_7_flasera_150219.wav,n,c ,,,,,0,171,171,96,,,,,,,,,,,,,,,n,1,0.36897569001303054,,,118,001,2019_Mar_18_1530,test_run,3.0.6,59.986271178361655,
18,ECW,ECW_18_morkulla_070319.wav,j,c ,,,,,0,172,172,17,,,,,,,,,,,,,,,j,1,0.26718119499855675,,,118,001,2019_Mar_18_1530,test_run,3.0.6,59.986271178361655,
30,ECW,ECW_30_recensioner_070319.wav,j,c ,,,,,0,173,173,29,,,,,,,,,,,,,,,j,1,0.2524006979947444,,,118,001,2019_Mar_18_1530,test_run,3.0.6,59.986271178361655,
91,ENW,ENW_1_norsimerar_150219.wav,n,c ,,,,,0,174,174,90,,,,,,,,,,,,,,,n,1,0.2521847480093129,,,118,001,2019_Mar_18_1530,test_run,3.0.6,59.986271178361655,
41,EFW,EFW_11_maanniskor_070319.wav,j,c ,,,,,0,175,175,40,,,,,,,,,,,,,,,j,1,0.3688691899878904,,,118,001,2019_Mar_18_1530,test_run,3.0.6,59.986271178361655,
125,ENW,ENW_35_nymaljen_150219.wav,n,c ,,,,,0,176,176,124,,,,,,,,,,,,,,,n,1,0.3864662900159601,,,118,001,2019_Mar_18_1530,test_run,3.0.6,59.986271178361655,
103,ENW,ENW_13_forvaron_150219.wav,n,c ,,,,,0,177,177,102,,,,,,,,,,,,,,,n,1,0.28577205902547576,,,118,001,2019_Mar_18_1530,test_run,3.0.6,59.986271178361655,
90,EFW,EFW_60_insulin_070319.wav,j,c ,,,,,0,178,178,89,,,,,,,,,,,,,,,j,1,0.2529312319820747,,,118,001,2019_Mar_18_1530,test_run,3.0.6,59.986271178361655,
19,ECW,ECW_19_persiska_070319.wav,j,c ,,,,,0,179,179,18,,,,,,,,,,,,,,,j,1,0.21926975500537083,,,118,001,2019_Mar_18_1530,test_run,3.0.6,59.986271178361655,
4,TTF,TTF_4_roet_070319.wav,,,1,rating_t_final.csv,t,final,,,,,0,0,0,0,0,0,0,1,0,0,0,3,,,,,,7,5.12,118,001,2019_Mar_18_1530,test_run,3.0.6,59.986271178361655,
30,TDF,TDF_30_sladd_070319.wav,,,1,rating_t_final.csv,t,final,,,,,0,0,0,0,0,0,0,1,0,1,1,29,,,,,,4,3.805,118,001,2019_Mar_18_1530,test_run,3.0.6,59.986271178361655,
27,TDF,TDF_27_sand_070319.wav,,,1,rating_t_final.csv,t,final,,,,,0,0,0,0,0,0,0,1,0,2,2,26,,,,,,5,1.67,118,001,2019_Mar_18_1530,test_run,3.0.6,59.986271178361655,
6,TTF,TTF_6_voart_070319.wav,,,1,rating_t_final.csv,t,final,,,,,0,0,0,0,0,0,0,1,0,3,3,5,,,,,,7,1.604,118,001,2019_Mar_18_1530,test_run,3.0.6,59.986271178361655,
26,TDF,TDF_26_rymd_070319.wav,,,1,rating_t_final.csv,t,final,,,,,0,0,0,0,0,0,0,1,0,4,4,25,,,,,,5,0.937,118,001,2019_Mar_18_1530,test_run,3.0.6,59.986271178361655,
20,TDF,TDF_20_god_070319.wav,,,1,rating_t_final.csv,t,final,,,,,0,0,0,0,0,0,0,1,0,5,5,19,,,,,,5,1.303,118,001,2019_Mar_18_1530,test_run,3.0.6,59.986271178361655,
22,TDF,TDF_22_hed_070319.wav,,,1,rating_t_final.csv,t,final,,,,,0,0,0,0,0,0,0,1,0,6,6,21,,,,,,5,1.336,118,001,2019_Mar_18_1530,test_run,3.0.6,59.986271178361655,
16,TTF,TTF_16_font_070319.wav,,,1,rating_t_final.csv,t,final,,,,,0,0,0,0,0,0,0,1,0,7,7,15,,,,,,6,1.554,118,001,2019_Mar_18_1530,test_run,3.0.6,59.986271178361655,
29,TDF,TDF_29_baadd_070319.wav,,,1,rating_t_final.csv,t,final,,,,,0,0,0,0,0,0,0,1,0,8,8,28,,,,,,4,1.487,118,001,2019_Mar_18_1530,test_run,3.0.6,59.986271178361655,
9,TTF,TTF_9_bot_070319.wav,,,1,rating_t_final.csv,t,final,,,,,0,0,0,0,0,0,0,1,0,9,9,8,,,,,,5,3.237,118,001,2019_Mar_18_1530,test_run,3.0.6,59.986271178361655,
15,TTF,TTF_15_not_070319.wav,,,1,rating_t_final.csv,t,final,,,,,0,0,0,0,0,0,0,1,0,10,10,14,,,,,,7,0.987,118,001,2019_Mar_18_1530,test_run,3.0.6,59.986271178361655,
7,TTF,TTF_7_vit_070319.wav,,,1,rating_t_final.csv,t,final,,,,,0,0,0,0,0,0,0,1,0,11,11,6,,,,,,7,0.837,118,001,2019_Mar_18_1530,test_run,3.0.6,59.986271178361655,
25,TDF,TDF_25_synd_070319.wav,,,1,rating_t_final.csv,t,final,,,,,0,0,0,0,0,0,0,1,0,12,12,24,,,,,,4,2.353,118,001,2019_Mar_18_1530,test_run,3.0.6,59.986271178361655,
8,TTF,TTF_8_noet_070319.wav,,,1,rating_t_final.csv,t,final,,,,,0,0,0,0,0,0,0,1,0,13,13,7,,,,,,5,3.62,118,001,2019_Mar_18_1530,test_run,3.0.6,59.986271178361655,
28,TDF,TDF_28_brand_070319.wav,,,1,rating_t_final.csv,t,final,,,,,0,0,0,0,0,0,0,1,0,14,14,27,,,,,,5,1.22,118,001,2019_Mar_18_1530,test_run,3.0.6,59.986271178361655,
11,TTF,TTF_11_svit_070319.wav,,,1,rating_t_final.csv,t,final,,,,,0,0,0,0,0,0,0,1,0,15,15,10,,,,,,7,0.754,118,001,2019_Mar_18_1530,test_run,3.0.6,59.986271178361655,
18,TDF,TDF_18_sjud_070319.wav,,,1,rating_t_final.csv,t,final,,,,,0,0,0,0,0,0,0,1,0,16,16,17,,,,,,4,1.787,118,001,2019_Mar_18_1530,test_run,3.0.6,59.986271178361655,
14,TTF,TTF_14_mot_070319.wav,,,1,rating_t_final.csv,t,final,,,,,0,0,0,0,0,0,0,1,0,17,17,13,,,,,,7,0.688,118,001,2019_Mar_18_1530,test_run,3.0.6,59.986271178361655,
31,TDF,TDF_31_brodd_070319.wav,,,1,rating_t_final.csv,t,final,,,,,0,0,0,0,0,0,0,1,0,18,18,30,,,,,,5,1.754,118,001,2019_Mar_18_1530,test_run,3.0.6,59.986271178361655,
13,TTF,TTF_13_gjut_070319.wav,,,1,rating_t_final.csv,t,final,,,,,0,0,0,0,0,0,0,1,0,19,19,12,,,,,,6,2.537,118,001,2019_Mar_18_1530,test_run,3.0.6,59.986271178361655,
32,TDF,TDF_32_hoard_070319.wav,,,1,rating_t_final.csv,t,final,,,,,0,0,0,0,0,0,0,1,0,20,20,31,,,,,,4,2.387,118,001,2019_Mar_18_1530,test_run,3.0.6,59.986271178361655,
3,TTF,TTF_3_raat_070319.wav,,,1,rating_t_final.csv,t,final,,,,,0,0,0,0,0,0,0,1,0,21,21,2,,,,,,7,0.587,118,001,2019_Mar_18_1530,test_run,3.0.6,59.986271178361655,
12,TTF,TTF_12_smet_070319.wav,,,1,rating_t_final.csv,t,final,,,,,0,0,0,0,0,0,0,1,0,22,22,11,,,,,,7,0.587,118,001,2019_Mar_18_1530,test_run,3.0.6,59.986271178361655,
24,TDF,TDF_24_smid_070319.wav,,,1,rating_t_final.csv,t,final,,,,,0,0,0,0,0,0,0,1,0,23,23,23,,,,,,3,2.887,118,001,2019_Mar_18_1530,test_run,3.0.6,59.986271178361655,
17,TDF,TDF_17_sked_070319.wav,,,1,rating_t_final.csv,t,final,,,,,0,0,0,0,0,0,0,1,0,24,24,16,,,,,,4,0.737,118,001,2019_Mar_18_1530,test_run,3.0.6,59.986271178361655,
19,TDF,TDF_19_sjod_070319.wav,,,1,rating_t_final.csv,t,final,,,,,0,0,0,0,0,0,0,1,0,25,25,18,,,,,,4,2.237,118,001,2019_Mar_18_1530,test_run,3.0.6,59.986271178361655,
23,TDF,TDF_23_hud_070319.wav,,,1,rating_t_final.csv,t,final,,,,,0,0,0,0,0,0,0,1,0,26,26,22,,,,,,4,1.504,118,001,2019_Mar_18_1530,test_run,3.0.6,59.986271178361655,
21,TDF,TDF_21_ljod _070319.wav,,,1,rating_t_final.csv,t,final,,,,,0,0,0,0,0,0,0,1,0,27,27,20,,,,,,5,1.553,118,001,2019_Mar_18_1530,test_run,3.0.6,59.986271178361655,
2,TTF,TTF_2_vet_070319.wav,,,1,rating_t_final.csv,t,final,,,,,0,0,0,0,0,0,0,1,0,28,28,1,,,,,,7,0.704,118,001,2019_Mar_18_1530,test_run,3.0.6,59.986271178361655,
1,TTF,TTF_1_rit_070319.wav,,,1,rating_t_final.csv,t,final,,,,,0,0,0,0,0,0,0,1,0,29,29,0,,,,,,7,0.487,118,001,2019_Mar_18_1530,test_run,3.0.6,59.986271178361655,
10,TTF,TTF_10_broet_070319.wav,,,1,rating_t_final.csv,t,final,,,,,0,0,0,0,0,0,0,1,0,30,30,9,,,,,,5,0.738,118,001,2019_Mar_18_1530,test_run,3.0.6,59.986271178361655,
5,TTF,TTF_5_voat_070319.wav,,,1,rating_t_final.csv,t,final,,,,,0,0,0,0,0,0,0,1,0,31,31,4,,,,,,7,0.587,118,001,2019_Mar_18_1530,test_run,3.0.6,59.986271178361655,
24,TTF,TTF_24_smit_070319.wav,,,1,rating_d_final.csv,d,final,,,,,0,0,0,0,0,1,1,0,0,0,0,23,,,,,,5,9.119,118,001,2019_Mar_18_1530,test_run,3.0.6,59.986271178361655,
1,TDF,TDF_1_rid_070319.wav,,,1,rating_d_final.csv,d,final,,,,,0,0,0,0,0,1,1,0,0,1,1,0,,,,,,7,0.57,118,001,2019_Mar_18_1530,test_run,3.0.6,59.986271178361655,
12,TDF,TDF_12_smed_070319.wav,,,1,rating_d_final.csv,d,final,,,,,0,0,0,0,0,1,1,0,0,2,2,11,,,,,,7,0.503,118,001,2019_Mar_18_1530,test_run,3.0.6,59.986271178361655,
14,TDF,TDF_14_mod_070319.wav,,,1,rating_d_final.csv,d,final,,,,,0,0,0,0,0,1,1,0,0,3,3,13,,,,,,5,3.054,118,001,2019_Mar_18_1530,test_run,3.0.6,59.986271178361655,
30,TTF,TTF_30_slatt_070319.wav,,,1,rating_d_final.csv,d,final,,,,,0,0,0,0,0,1,1,0,0,4,4,29,,,,,,2,3.352,118,001,2019_Mar_18_1530,test_run,3.0.6,59.986271178361655,
2,TDF,TDF_2_ved_070319.wav,,,1,rating_d_final.csv,d,final,,,,,0,0,0,0,0,1,1,0,0,5,5,1,,,,,,7,0.871,118,001,2019_Mar_18_1530,test_run,3.0.6,59.986271178361655,
28,TTF,TTF_28_brant_070319.wav,,,1,rating_d_final.csv,d,final,,,,,0,0,0,0,0,1,1,0,0,6,6,27,,,,,,5,1.62,118,001,2019_Mar_18_1530,test_run,3.0.6,59.986271178361655,
21,TTF,TTF_21_gjoet_070319.wav,,,1,rating_d_final.csv,d,final,,,,,0,0,0,0,0,1,1,0,0,7,7,20,,,,,,5,2.27,118,001,2019_Mar_18_1530,test_run,3.0.6,59.986271178361655,
25,TTF,TTF_25_synt_070319.wav,,,1,rating_d_final.csv,d,final,,,,,0,0,0,0,0,1,1,0,0,8,8,24,,,,,,3,3.421,118,001,2019_Mar_18_1530,test_run,3.0.6,59.986271178361655,
6,TDF,TDF_6_voard_070319.wav,,,1,rating_d_final.csv,d,final,,,,,0,0,0,0,0,1,1,0,0,9,9,5,,,,,,7,0.587,118,001,2019_Mar_18_1530,test_run,3.0.6,59.986271178361655,
29,TTF,TTF_29_bett_070319.wav,,,1,rating_d_final.csv,d,final,,,,,0,0,0,0,0,1,1,0,0,10,10,28,,,,,,2,1.07,118,001,2019_Mar_18_1530,test_run,3.0.6,59.986271178361655,
27,TTF,TTF_27_sant_070319.wav,,,1,rating_d_final.csv,d,final,,,,,0,0,0,0,0,1,1,0,0,11,11,26,,,,,,3,0.754,118,001,2019_Mar_18_1530,test_run,3.0.6,59.986271178361655,
3,TDF,TDF_3_raad_070319.wav,,,1,rating_d_final.csv,d,final,,,,,0,0,0,0,0,1,1,0,0,12,12,2,,,,,,7,1.003,118,001,2019_Mar_18_1530,test_run,3.0.6,59.986271178361655,
8,TDF,TDF_8_nod_070319.wav,,,1,rating_d_final.csv,d,final,,,,,0,0,0,0,0,1,1,0,0,13,13,7,,,,,,7,0.587,118,001,2019_Mar_18_1530,test_run,3.0.6,59.986271178361655,
16,TDF,TDF_16_fond_070319.wav,,,1,rating_d_final.csv,d,final,,,,,0,0,0,0,0,1,1,0,0,14,14,15,,,,,,7,0.654,118,001,2019_Mar_18_1530,test_run,3.0.6,59.986271178361655,
4,TDF,TDF_4_rod_070319.wav,,,1,rating_d_final.csv,d,final,,,,,0,0,0,0,0,1,1,0,0,15,15,3,,,,,,7,0.521,118,001,2019_Mar_18_1530,test_run,3.0.6,59.986271178361655,
18,TTF,TTF_18_skjut_070319.wav,,,1,rating_d_final.csv,d,final,,,,,0,0,0,0,0,1,1,0,0,16,16,17,,,,,,2,1.719,118,001,2019_Mar_18_1530,test_run,3.0.6,59.986271178361655,
9,TDF,TDF_9_bod_070319.wav,,,1,rating_d_final.csv,d,final,,,,,0,0,0,0,0,1,1,0,0,17,17,8,,,,,,3,1.921,118,001,2019_Mar_18_1530,test_run,3.0.6,59.986271178361655,
19,TTF,TTF_19_skoet_070319.wav,,,1,rating_d_final.csv,d,final,,,,,0,0,0,0,0,1,1,0,0,18,18,18,,,,,,2,1.103,118,001,2019_Mar_18_1530,test_run,3.0.6,59.986271178361655,
7,TDF,TDF_7_vid_070319.wav,,,1,rating_d_final.csv,d,final,,,,,0,0,0,0,0,1,1,0,0,19,19,6,,,,,,5,3.72,118,001,2019_Mar_18_1530,test_run,3.0.6,59.986271178361655,
20,TTF,TTF_20_got_070319.wav,,,1,rating_d_final.csv,d,final,,,,,0,0,0,0,0,1,1,0,0,20,20,19,,,,,,5,3.17,118,001,2019_Mar_18_1530,test_run,3.0.6,59.986271178361655,
15,TDF,TDF_15_nod_070319.wav,,,1,rating_d_final.csv,d,final,,,,,0,0,0,0,0,1,1,0,0,21,21,14,,,,,,6,2.121,118,001,2019_Mar_18_1530,test_run,3.0.6,59.986271178361655,
13,TDF,TDF_13_ljud_070319.wav,,,1,rating_d_final.csv,d,final,,,,,0,0,0,0,0,1,1,0,0,22,22,12,,,,,,7,0.736,118,001,2019_Mar_18_1530,test_run,3.0.6,59.986271178361655,
26,TTF,TTF_26_rymt_070319.wav,,,1,rating_d_final.csv,d,final,,,,,0,0,0,0,0,1,1,0,0,23,23,25,,,,,,6,2.388,118,001,2019_Mar_18_1530,test_run,3.0.6,59.986271178361655,
32,TTF,TTF_32_hoart_070319.wav,,,1,rating_d_final.csv,d,final,,,,,0,0,0,0,0,1,1,0,0,24,24,31,,,,,,3,5.771,118,001,2019_Mar_18_1530,test_run,3.0.6,59.986271178361655,
23,TTF,TTF_23_hut_070319.wav,,,1,rating_d_final.csv,d,final,,,,,0,0,0,0,0,1,1,0,0,25,25,22,,,,,,3,0.57,118,001,2019_Mar_18_1530,test_run,3.0.6,59.986271178361655,
22,TTF,TTF_22_het_070319.wav,,,1,rating_d_final.csv,d,final,,,,,0,0,0,0,0,1,1,0,0,26,26,21,,,,,,2,0.62,118,001,2019_Mar_18_1530,test_run,3.0.6,59.986271178361655,
11,TDF,TDF_11_svid_070319.wav,,,1,rating_d_final.csv,d,final,,,,,0,0,0,0,0,1,1,0,0,27,27,10,,,,,,3,0.853,118,001,2019_Mar_18_1530,test_run,3.0.6,59.986271178361655,
10,TDF,TDF_10_brod_070319.wav,,,1,rating_d_final.csv,d,final,,,,,0,0,0,0,0,1,1,0,0,28,28,9,,,,,,7,0.587,118,001,2019_Mar_18_1530,test_run,3.0.6,59.986271178361655,
5,TDF,TDF_5_voad_070319.wav,,,1,rating_d_final.csv,d,final,,,,,0,0,0,0,0,1,1,0,0,29,29,4,,,,,,7,0.554,118,001,2019_Mar_18_1530,test_run,3.0.6,59.986271178361655,
31,TTF,TTF_31_brott_070319.wav,,,1,rating_d_final.csv,d,final,,,,,0,0,0,0,0,1,1,0,0,30,30,30,,,,,,2,0.654,118,001,2019_Mar_18_1530,test_run,3.0.6,59.986271178361655,
17,TTF,TTF_17_sket_070319.wav,,,1,rating_d_final.csv,d,final,,,,,0,0,0,0,0,1,1,0,0,31,31,16,,,,,,1,0.754,118,001,2019_Mar_18_1530,test_run,3.0.6,59.986271178361655,
14,TDI,TDI_14_dok_150219.wav,,,2,rating_d_initial.csv,d,initial,,,,,0,1,1,1,0,0,0,0,0,0,0,13,,,,,,6,3.104,118,001,2019_Mar_18_1530,test_run,3.0.6,59.986271178361655,
6,TDI,TDI_6_deg_150219.wav,,,2,rating_d_initial.csv,d,initial,,,,,0,1,1,1,0,0,0,0,0,1,1,5,,,,,,7,0.688,118,001,2019_Mar_18_1530,test_run,3.0.6,59.986271178361655,
5,TDI,TDI_5_dass_150219.wav,,,2,rating_d_initial.csv,d,initial,,,,,0,1,1,1,0,0,0,0,0,2,2,4,,,,,,7,0.971,118,001,2019_Mar_18_1530,test_run,3.0.6,59.986271178361655,
18,TTI,TTI_18_tum_150219.wav,,,2,rating_d_initial.csv,d,initial,,,,,0,1,1,1,0,0,0,0,0,3,3,17,,,,,,1,1.021,118,001,2019_Mar_18_1530,test_run,3.0.6,59.986271178361655,
21,TTI,TTI_21_tugg_150219.wav,,,2,rating_d_initial.csv,d,initial,,,,,0,1,1,1,0,0,0,0,0,4,4,20,,,,,,2,1.888,118,001,2019_Mar_18_1530,test_run,3.0.6,59.986271178361655,
17,TTI,TTI_17_topp_150219.wav,,,2,rating_d_initial.csv,d,initial,,,,,0,1,1,1,0,0,0,0,0,5,5,16,,,,,,2,1.687,118,001,2019_Mar_18_1530,test_run,3.0.6,59.986271178361655,
2,TDI,TDI_2_dagg_150219.wav,,,2,rating_d_initial.csv,d,initial,,,,,0,1,1,1,0,0,0,0,0,6,6,1,,,,,,7,0.621,118,001,2019_Mar_18_1530,test_run,3.0.6,59.986271178361655,
23,TTI,TTI_23_toa_150219.wav,,,2,rating_d_initial.csv,d,initial,,,,,0,1,1,1,0,0,0,0,0,7,7,22,,,,,,2,0.654,118,001,2019_Mar_18_1530,test_run,3.0.6,59.986271178361655,
27,TTI,TTI_27_toem_150219.wav,,,2,rating_d_initial.csv,d,initial,,,,,0,1,1,1,0,0,0,0,0,8,8,26,,,,,,1,0.837,118,001,2019_Mar_18_1530,test_run,3.0.6,59.986271178361655,
11,TDI,TDI_11_dipp_150219.wav,,,2,rating_d_initial.csv,d,initial,,,,,0,1,1,1,0,0,0,0,0,9,9,10,,,,,,7,0.787,118,001,2019_Mar_18_1530,test_run,3.0.6,59.986271178361655,
26,TTI,TTI_26_toe_150219.wav,,,2,rating_d_initial.csv,d,initial,,,,,0,1,1,1,0,0,0,0,0,10,10,25,,,,,,6,0.755,118,001,2019_Mar_18_1530,test_run,3.0.6,59.986271178361655,
3,TDI,TDI_3_dal_150219.wav,,,2,rating_d_initial.csv,d,initial,,,,,0,1,1,1,0,0,0,0,0,11,11,2,,,,,,7,0.687,118,001,2019_Mar_18_1530,test_run,3.0.6,59.986271178361655,
22,TTI,TTI_22_ty_150219.wav,,,2,rating_d_initial.csv,d,initial,,,,,0,1,1,1,0,0,0,0,0,12,12,21,,,,,,7,0.587,118,001,2019_Mar_18_1530,test_run,3.0.6,59.986271178361655,
1,TDI,TDI_1_dag_150219.wav,,,2,rating_d_initial.csv,d,initial,,,,,0,1,1,1,0,0,0,0,0,13,13,0,,,,,,7,0.603,118,001,2019_Mar_18_1530,test_run,3.0.6,59.986271178361655,
4,TDI,TDI_4_dam_150219.wav,,,2,rating_d_initial.csv,d,initial,,,,,0,1,1,1,0,0,0,0,0,14,14,3,,,,,,7,0.787,118,001,2019_Mar_18_1530,test_run,3.0.6,59.986271178361655,
7,TDI,TDI_7_den_150219.wav,,,2,rating_d_initial.csv,d,initial,,,,,0,1,1,1,0,0,0,0,0,15,15,6,,,,,,7,0.687,118,001,2019_Mar_18_1530,test_run,3.0.6,59.986271178361655,
19,TTI,TTI_19_tun_150219.wav,,,2,rating_d_initial.csv,d,initial,,,,,0,1,1,1,0,0,0,0,0,16,16,18,,,,,,7,0.703,118,001,2019_Mar_18_1530,test_run,3.0.6,59.986271178361655,
9,TDI,TDI_9_dill_150219.wav,,,2,rating_d_initial.csv,d,initial,,,,,0,1,1,1,0,0,0,0,0,17,17,8,,,,,,7,0.604,118,001,2019_Mar_18_1530,test_run,3.0.6,59.986271178361655,
10,TDI,TDI_10_ditt_150219.wav,,,2,rating_d_initial.csv,d,initial,,,,,0,1,1,1,0,0,0,0,0,18,18,9,,,,,,7,0.571,118,001,2019_Mar_18_1530,test_run,3.0.6,59.986271178361655,
20,TTI,TTI_20_tur_150219.wav,,,2,rating_d_initial.csv,d,initial,,,,,0,1,1,1,0,0,0,0,0,19,19,19,,,,,,2,0.653,118,001,2019_Mar_18_1530,test_run,3.0.6,59.986271178361655,
25,TTI,TTI_25_taar_150219.wav,,,2,rating_d_initial.csv,d,initial,,,,,0,1,1,1,0,0,0,0,0,20,20,24,,,,,,6,0.687,118,001,2019_Mar_18_1530,test_run,3.0.6,59.986271178361655,
24,TTI,TTI_24_taack_150219.wav,,,2,rating_d_initial.csv,d,initial,,,,,0,1,1,1,0,0,0,0,0,21,21,23,,,,,,3,0.77,118,001,2019_Mar_18_1530,test_run,3.0.6,59.986271178361655,
12,TDI,TDI_12_doa_150219.wav,,,2,rating_d_initial.csv,d,initial,,,,,0,1,1,1,0,0,0,0,0,22,22,11,,,,,,7,0.687,118,001,2019_Mar_18_1530,test_run,3.0.6,59.986271178361655,
13,TDI,TDI_13_dog_150219.wav,,,2,rating_d_initial.csv,d,initial,,,,,0,1,1,1,0,0,0,0,0,23,23,12,,,,,,7,0.553,118,001,2019_Mar_18_1530,test_run,3.0.6,59.986271178361655,
15,TTI,TTI_15_tom_150219.wav,,,2,rating_d_initial.csv,d,initial,,,,,0,1,1,1,0,0,0,0,0,24,24,14,,,,,,1,0.77,118,001,2019_Mar_18_1530,test_run,3.0.6,59.986271178361655,
16,TTI,TTI_16_ton_150219.wav,,,2,rating_d_initial.csv,d,initial,,,,,0,1,1,1,0,0,0,0,0,25,25,15,,,,,,1,0.854,118,001,2019_Mar_18_1530,test_run,3.0.6,59.986271178361655,
8,TDI,TDI_8_dia_150219.wav,,,2,rating_d_initial.csv,d,initial,,,,,0,1,1,1,0,0,0,0,0,26,26,7,,,,,,7,0.585,118,001,2019_Mar_18_1530,test_run,3.0.6,59.986271178361655,
24,TDI,TDI_24_daack_150219.wav,,,2,rating_t_initial.csv,t,initial,,,,,0,1,1,1,0,1,1,1,0,0,0,23,,,,,,1,0.671,118,001,2019_Mar_18_1530,test_run,3.0.6,59.986271178361655,
27,TDI,TDI_27_doem_edit_150219.wav,,,2,rating_t_initial.csv,t,initial,,,,,0,1,1,1,0,1,1,1,0,1,1,26,,,,,,1,0.554,118,001,2019_Mar_18_1530,test_run,3.0.6,59.986271178361655,
12,TTI,TTI_12_toa_150219.wav,,,2,rating_t_initial.csv,t,initial,,,,,0,1,1,1,0,1,1,1,0,2,2,11,,,,,,3,0.937,118,001,2019_Mar_18_1530,test_run,3.0.6,59.986271178361655,
9,TTI,TTI_9_till_150219.wav,,,2,rating_t_initial.csv,t,initial,,,,,0,1,1,1,0,1,1,1,0,3,3,8,,,,,,3,1.721,118,001,2019_Mar_18_1530,test_run,3.0.6,59.986271178361655,
1,TTI,TTI_1_tag_150219.wav,,,2,rating_t_initial.csv,t,initial,,,,,0,1,1,1,0,1,1,1,0,4,4,0,,,,,,7,0.687,118,001,2019_Mar_18_1530,test_run,3.0.6,59.986271178361655,
21,TDI,TDI_21_dugg_150219.wav,,,2,rating_t_initial.csv,t,initial,,,,,0,1,1,1,0,1,1,1,0,5,5,20,,,,,,2,1.336,118,001,2019_Mar_18_1530,test_run,3.0.6,59.986271178361655,
6,TTI,TTI_6_teg_150219.wav,,,2,rating_t_initial.csv,t,initial,,,,,0,1,1,1,0,1,1,1,0,6,6,5,,,,,,3,0.72,118,001,2019_Mar_18_1530,test_run,3.0.6,59.986271178361655,
5,TTI,TTI_5_tass_150219.wav,,,2,rating_t_initial.csv,t,initial,,,,,0,1,1,1,0,1,1,1,0,7,7,4,,,,,,1,0.937,118,001,2019_Mar_18_1530,test_run,3.0.6,59.986271178361655,
26,TDI,TDI_26_doe_150219.wav,,,2,rating_t_initial.csv,t,initial,,,,,0,1,1,1,0,1,1,1,0,8,8,25,,,,,,1,0.836,118,001,2019_Mar_18_1530,test_run,3.0.6,59.986271178361655,
23,TDI,TDI_23_doa_150219.wav,,,2,rating_t_initial.csv,t,initial,,,,,0,1,1,1,0,1,1,1,0,9,9,22,,,,,,1,0.92,118,001,2019_Mar_18_1530,test_run,3.0.6,59.986271178361655,
14,TTI,TTI_14_tok_150219.wav,,,2,rating_t_initial.csv,t,initial,,,,,0,1,1,1,0,1,1,1,0,10,10,13,,,,,,7,0.604,118,001,2019_Mar_18_1530,test_run,3.0.6,59.986271178361655,
7,TTI,TTI_7_tenn_150219.wav,,,2,rating_t_initial.csv,t,initial,,,,,0,1,1,1,0,1,1,1,0,11,11,6,,,,,,6,1.32,118,001,2019_Mar_18_1530,test_run,3.0.6,59.986271178361655,
10,TTI,TTI_10_titt_150219.wav,,,2,rating_t_initial.csv,t,initial,,,,,0,1,1,1,0,1,1,1,0,12,12,9,,,,,,2,2.254,118,001,2019_Mar_18_1530,test_run,3.0.6,59.986271178361655,
11,TTI,TTI_11_tipp_150219.wav,,,2,rating_t_initial.csv,t,initial,,,,,0,1,1,1,0,1,1,1,0,13,13,10,,,,,,6,0.737,118,001,2019_Mar_18_1530,test_run,3.0.6,59.986271178361655,
8,TTI,TTI_8_tia_150219.wav,,,2,rating_t_initial.csv,t,initial,,,,,0,1,1,1,0,1,1,1,0,14,14,7,,,,,,7,0.604,118,001,2019_Mar_18_1530,test_run,3.0.6,59.986271178361655,
2,TTI,TTI_2_tagg_150219.wav,,,2,rating_t_initial.csv,t,initial,,,,,0,1,1,1,0,1,1,1,0,15,15,1,,,,,,6,0.62,118,001,2019_Mar_18_1530,test_run,3.0.6,59.986271178361655,
20,TDI,TDI_20_dur_150219.wav,,,2,rating_t_initial.csv,t,initial,,,,,0,1,1,1,0,1,1,1,0,16,16,19,,,,,,1,0.587,118,001,2019_Mar_18_1530,test_run,3.0.6,59.986271178361655,
3,TTI,TTI_3_tal_150219.wav,,,2,rating_t_initial.csv,t,initial,,,,,0,1,1,1,0,1,1,1,0,17,17,2,,,,,,1,0.536,118,001,2019_Mar_18_1530,test_run,3.0.6,59.986271178361655,
4,TTI,TTI_4_tam_150219.wav,,,2,rating_t_initial.csv,t,initial,,,,,0,1,1,1,0,1,1,1,0,18,18,3,,,,,,7,0.921,118,001,2019_Mar_18_1530,test_run,3.0.6,59.986271178361655,
13,TTI,TTI_13_tog_150219.wav,,,2,rating_t_initial.csv,t,initial,,,,,0,1,1,1,0,1,1,1,0,19,19,12,,,,,,7,0.554,118,001,2019_Mar_18_1530,test_run,3.0.6,59.986271178361655,
16,TDI,TDI_16_don_150219.wav,,,2,rating_t_initial.csv,t,initial,,,,,0,1,1,1,0,1,1,1,0,20,20,15,,,,,,2,1.088,118,001,2019_Mar_18_1530,test_run,3.0.6,59.986271178361655,
25,TDI,TDI_25_daar_150219.wav,,,2,rating_t_initial.csv,t,initial,,,,,0,1,1,1,0,1,1,1,0,21,21,24,,,,,,1,0.536,118,001,2019_Mar_18_1530,test_run,3.0.6,59.986271178361655,
22,TDI,TDI_22_dy_150219.wav,,,2,rating_t_initial.csv,t,initial,,,,,0,1,1,1,0,1,1,1,0,22,22,21,,,,,,1,0.436,118,001,2019_Mar_18_1530,test_run,3.0.6,59.986271178361655,
18,TDI,TDI_18_dum_150219.wav,,,2,rating_t_initial.csv,t,initial,,,,,0,1,1,1,0,1,1,1,0,23,23,17,,,,,,1,1.137,118,001,2019_Mar_18_1530,test_run,3.0.6,59.986271178361655,
17,TDI,TDI_17_dopp_150219.wav,,,2,rating_t_initial.csv,t,initial,,,,,0,1,1,1,0,1,1,1,0,24,24,16,,,,,,1,0.721,118,001,2019_Mar_18_1530,test_run,3.0.6,59.986271178361655,
19,TDI,TDI_19_dun_150219.wav,,,2,rating_t_initial.csv,t,initial,,,,,0,1,1,1,0,1,1,1,0,25,25,18,,,,,,1,0.537,118,001,2019_Mar_18_1530,test_run,3.0.6,59.986271178361655,
15,TDI,TDI_15_dom_150219.wav,,,2,rating_t_initial.csv,t,initial,,,,,0,1,1,1,0,1,1,1,0,26,26,14,,,,,,1,0.671,118,001,2019_Mar_18_1530,test_run,3.0.6,59.986271178361655,
