item,item_cond,sound,corr_ans,group,block_id,listname,rating_for,position,trials.thisRepN,trials.thisTrialN,trials.thisN,trials.thisIndex,run_block_type.thisRepN,run_block_type.thisTrialN,run_block_type.thisN,run_block_type.thisIndex,routine.thisRepN,routine.thisTrialN,routine.thisN,routine.thisIndex,rating_trials.thisRepN,rating_trials.thisTrialN,rating_trials.thisN,rating_trials.thisIndex,key_resp_1.keys,key_resp_1.rt,key_resp_2.keys,key_resp_2.corr,key_resp_2.rt,rating_1.response,rating_1.rt,participant,session,date,expName,psychopyVersion,frameRate,
,,,,,,,,,,,,,,,,,,,,,,,,,space,10.90330221800832,,,,,,119,001,2019_Mar_19_1007,test_run,3.0.6,59.983130352831616,
51,EFW,EFW_21_varierar_070319.wav,j,t,,,,,0,0,0,50,,,,,,,,,,,,,,,j,1,0.750500337977428,,,119,001,2019_Mar_19_1007,test_run,3.0.6,59.983130352831616,
35,EFW,EFW_5_samhaalle_070319.wav,j,t,,,,,0,1,1,34,,,,,,,,,,,,,,,j,1,1.0361055840039626,,,119,001,2019_Mar_19_1007,test_run,3.0.6,59.983130352831616,
135,ENW,ENW_45_fammoarens_150219.wav,n,t,,,,,0,2,2,134,,,,,,,,,,,,,,,n,1,0.7023858279862907,,,119,001,2019_Mar_19_1007,test_run,3.0.6,59.983130352831616,
173,ENW,ENW_83_fyrskovar_150219.wav,n,t,,,,,0,3,3,172,,,,,,,,,,,,,,,n,1,0.952672638988588,,,119,001,2019_Mar_19_1007,test_run,3.0.6,59.983130352831616,
132,ENW,ENW_42_hamsforing_150219.wav,n,t,,,,,0,4,4,131,,,,,,,,,,,,,,,n,1,2.483861499989871,,,119,001,2019_Mar_19_1007,test_run,3.0.6,59.983130352831616,
102,ENW,ENW_12_snälmola_150219.wav,n,t,,,,,0,5,5,101,,,,,,,,,,,,,,,n,1,3.3855630949838087,,,119,001,2019_Mar_19_1007,test_run,3.0.6,59.983130352831616,
118,ENW,ENW_28_läkermask_150219.wav,n,t,,,,,0,6,6,117,,,,,,,,,,,,,,,j,0,2.5860810470185243,,,119,001,2019_Mar_19_1007,test_run,3.0.6,59.983130352831616,
131,ENW,ENW_41_vessmaren_150219.wav,n,t,,,,,0,7,7,130,,,,,,,,,,,,,,,n,1,0.8195049249916337,,,119,001,2019_Mar_19_1007,test_run,3.0.6,59.983130352831616,
176,ENW,ENW_86_heloppsin_150219.wav,n,t,,,,,0,8,8,175,,,,,,,,,,,,,,,n,1,0.9358720859745517,,,119,001,2019_Mar_19_1007,test_run,3.0.6,59.983130352831616,
15,ETW,ETW_15_knivsudd_070319.wav,j,t,,,,,0,9,9,14,,,,,,,,,,,,,,,j,1,0.9527012559992727,,,119,001,2019_Mar_19_1007,test_run,3.0.6,59.983130352831616,
52,EFW,EFW_22_normala_070319.wav,j,t,,,,,0,10,10,51,,,,,,,,,,,,,,,j,1,0.48633618000894785,,,119,001,2019_Mar_19_1007,test_run,3.0.6,59.983130352831616,
61,EFW,EFW_31_jaamfoera_070319.wav,j,t,,,,,0,11,11,60,,,,,,,,,,,,,,,j,1,0.5030075820104685,,,119,001,2019_Mar_19_1007,test_run,3.0.6,59.983130352831616,
177,ENW,ENW_87_kloavare_150219.wav,n,t,,,,,0,12,12,176,,,,,,,,,,,,,,,n,1,2.2024293349822983,,,119,001,2019_Mar_19_1007,test_run,3.0.6,59.983130352831616,
77,EFW,EFW_47_invoanare_070319.wav,j,t,,,,,0,13,13,76,,,,,,,,,,,,,,,j,1,0.5194404800131451,,,119,001,2019_Mar_19_1007,test_run,3.0.6,59.983130352831616,
106,ENW,ENW_16_rolinkar_150219.wav,n,t,,,,,0,14,14,105,,,,,,,,,,,,,,,n,1,3.4169639690080658,,,119,001,2019_Mar_19_1007,test_run,3.0.6,59.983130352831616,
17,ETW,ETW_17_hemmavid_070319.wav,j,t,,,,,0,15,15,16,,,,,,,,,,,,,,,j,1,0.5836262489901856,,,119,001,2019_Mar_19_1007,test_run,3.0.6,59.983130352831616,
126,ENW,ENW_36_skymlosa_150219.wav,n,t,,,,,0,16,16,125,,,,,,,,,,,,,,,n,1,1.6022793689917307,,,119,001,2019_Mar_19_1007,test_run,3.0.6,59.983130352831616,
86,EFW,EFW_56_mormor_070319.wav,j,t,,,,,0,17,17,85,,,,,,,,,,,,,,,j,1,0.43617998098488897,,,119,001,2019_Mar_19_1007,test_run,3.0.6,59.983130352831616,
98,ENW,ENW_8_haväras_150219.wav,n,t,,,,,0,18,18,97,,,,,,,,,,,,,,,n,1,0.6862989880028181,,,119,001,2019_Mar_19_1007,test_run,3.0.6,59.983130352831616,
137,ENW,ENW_47_oafläppen_150219.wav,n,t,,,,,0,19,19,136,,,,,,,,,,,,,,,n,1,2.0031961479980964,,,119,001,2019_Mar_19_1007,test_run,3.0.6,59.983130352831616,
40,EFW,EFW_10_laarare_070319.wav,j,t,,,,,0,20,20,39,,,,,,,,,,,,,,,j,1,0.5526455960061867,,,119,001,2019_Mar_19_1007,test_run,3.0.6,59.983130352831616,
57,EFW,EFW_27_analysera_070319.wav,j,t,,,,,0,21,21,56,,,,,,,,,,,,,,,j,1,0.4197255920153111,,,119,001,2019_Mar_19_1007,test_run,3.0.6,59.983130352831616,
74,EFW,EFW_44_ljusa_070319.wav,j,t,,,,,0,22,22,73,,,,,,,,,,,,,,,j,1,2.886370899999747,,,119,001,2019_Mar_19_1007,test_run,3.0.6,59.983130352831616,
150,ENW,ENW_60_lackpenar_150219.wav,n,t,,,,,0,23,23,149,,,,,,,,,,,,,,,n,1,3.4189885719970334,,,119,001,2019_Mar_19_1007,test_run,3.0.6,59.983130352831616,
28,ETW,ETW_28_kommunalroad_070319.wav,j,t,,,,,0,24,24,27,,,,,,,,,,,,,,,j,1,0.7859463609929662,,,119,001,2019_Mar_19_1007,test_run,3.0.6,59.983130352831616,
67,EFW,EFW_37_foervisso_070319.wav,j,t,,,,,0,25,25,66,,,,,,,,,,,,,,,j,1,0.3524054760055151,,,119,001,2019_Mar_19_1007,test_run,3.0.6,59.983130352831616,
113,ENW,ENW_23_allsänning_150219.wav,n,t,,,,,0,26,26,112,,,,,,,,,,,,,,,n,1,0.8355997640173882,,,119,001,2019_Mar_19_1007,test_run,3.0.6,59.983130352831616,
121,ENW,ENW_31_romation_150219.wav,n,t,,,,,0,27,27,120,,,,,,,,,,,,,,,n,1,1.91877128201304,,,119,001,2019_Mar_19_1007,test_run,3.0.6,59.983130352831616,
165,ENW,ENW_75_foarskining_150219.wav,n,t,,,,,0,28,28,164,,,,,,,,,,,,,,,n,1,1.5361371689941734,,,119,001,2019_Mar_19_1007,test_run,3.0.6,59.983130352831616,
93,ENW,ENW_3_vissorens_150219.wav,n,t,,,,,0,29,29,92,,,,,,,,,,,,,,,n,1,0.5539893939858302,,,119,001,2019_Mar_19_1007,test_run,3.0.6,59.983130352831616,
138,ENW,ENW_48_skyjamsen_150219.wav,n,t,,,,,0,30,30,137,,,,,,,,,,,,,,,n,1,0.6862567400094122,,,119,001,2019_Mar_19_1007,test_run,3.0.6,59.983130352831616,
144,ENW,ENW_54_lomering_150219.wav,n,t,,,,,0,31,31,143,,,,,,,,,,,,,,,n,1,1.003066716977628,,,119,001,2019_Mar_19_1007,test_run,3.0.6,59.983130352831616,
122,ENW,ENW_32_fonering_150219.wav,n,t,,,,,0,32,32,121,,,,,,,,,,,,,,,n,1,0.9361847840191331,,,119,001,2019_Mar_19_1007,test_run,3.0.6,59.983130352831616,
167,ENW,ENW_77_somfera_150219.wav,n,t,,,,,0,33,33,166,,,,,,,,,,,,,,,n,1,0.5195898670062888,,,119,001,2019_Mar_19_1007,test_run,3.0.6,59.983130352831616,
22,ETW,ETW_22_sinnesfrid_070319.wav,j,t,,,,,0,34,34,21,,,,,,,,,,,,,,,j,1,0.43578487998456694,,,119,001,2019_Mar_19_1007,test_run,3.0.6,59.983130352831616,
155,ENW,ENW_65_hamfylla_150219.wav,n,t,,,,,0,35,35,154,,,,,,,,,,,,,,,j,0,7.169573602994205,,,119,001,2019_Mar_19_1007,test_run,3.0.6,59.983130352831616,
39,EFW,EFW_9_infektion_070319.wav,j,t,,,,,0,36,36,38,,,,,,,,,,,,,,,j,1,0.4503530240035616,,,119,001,2019_Mar_19_1007,test_run,3.0.6,59.983130352831616,
95,ENW,ENW_5_spoamisk_150219.wav,n,t,,,,,0,37,37,94,,,,,,,,,,,,,,,n,1,0.6355477049946785,,,119,001,2019_Mar_19_1007,test_run,3.0.6,59.983130352831616,
58,EFW,EFW_28_olja_070319.wav,j,t,,,,,0,38,38,57,,,,,,,,,,,,,,,j,1,0.6187179309781641,,,119,001,2019_Mar_19_1007,test_run,3.0.6,59.983130352831616,
70,EFW,EFW_40_miljoner_070319.wav,j,t,,,,,0,39,39,69,,,,,,,,,,,,,,,j,1,0.3861727780022193,,,119,001,2019_Mar_19_1007,test_run,3.0.6,59.983130352831616,
179,ENW,ENW_89_mikenspoan_150219.wav,n,t,,,,,0,40,40,178,,,,,,,,,,,,,,,n,1,0.5196847839979455,,,119,001,2019_Mar_19_1007,test_run,3.0.6,59.983130352831616,
46,EFW,EFW_16_lyssna_070319.wav,j,t,,,,,0,41,41,45,,,,,,,,,,,,,,,j,1,0.41921279797679745,,,119,001,2019_Mar_19_1007,test_run,3.0.6,59.983130352831616,
59,EFW,EFW_29_formen_070319.wav,j,t,,,,,0,42,42,58,,,,,,,,,,,,,,,j,1,0.36958415000117384,,,119,001,2019_Mar_19_1007,test_run,3.0.6,59.983130352831616,
94,ENW,ENW_4_kyllfaren_150219.wav,n,t,,,,,0,43,43,93,,,,,,,,,,,,,,,n,1,0.46877454000059515,,,119,001,2019_Mar_19_1007,test_run,3.0.6,59.983130352831616,
149,ENW,ENW_59_kyrkmänning_150219.wav,n,t,,,,,0,44,44,148,,,,,,,,,,,,,,,n,1,3.167089668015251,,,119,001,2019_Mar_19_1007,test_run,3.0.6,59.983130352831616,
88,EFW,EFW_58_examen_070319.wav,j,t,,,,,0,45,45,87,,,,,,,,,,,,,,,j,1,0.38594511698465794,,,119,001,2019_Mar_19_1007,test_run,3.0.6,59.983130352831616,
99,ENW,ENW_9_samlemor_150219.wav,n,t,,,,,0,46,46,98,,,,,,,,,,,,,,,n,1,1.8524214730132371,,,119,001,2019_Mar_19_1007,test_run,3.0.6,59.983130352831616,
152,ENW,ENW_62_ljullepilja_150219.wav,n,t,,,,,0,47,47,151,,,,,,,,,,,,,,,n,1,0.33574025600682944,,,119,001,2019_Mar_19_1007,test_run,3.0.6,59.983130352831616,
97,ENW,ENW_7_flasera_150219.wav,n,t,,,,,0,48,48,96,,,,,,,,,,,,,,,n,1,0.5195846960123163,,,119,001,2019_Mar_19_1007,test_run,3.0.6,59.983130352831616,
105,ENW,ENW_15_forfeckla_150219.wav,n,t,,,,,0,49,49,104,,,,,,,,,,,,,,,n,1,0.4023870780074503,,,119,001,2019_Mar_19_1007,test_run,3.0.6,59.983130352831616,
123,ENW,ENW_33_froamation_150219.wav,n,t,,,,,0,50,50,122,,,,,,,,,,,,,,,n,1,0.5020639459835365,,,119,001,2019_Mar_19_1007,test_run,3.0.6,59.983130352831616,
96,ENW,ENW_6_vilfroaser_150219.wav,n,t,,,,,0,51,51,95,,,,,,,,,,,,,,,n,1,0.6854880029859487,,,119,001,2019_Mar_19_1007,test_run,3.0.6,59.983130352831616,
69,EFW,EFW_39_foersvara_070319.wav,j,t,,,,,0,52,52,68,,,,,,,,,,,,,,,j,1,0.33571807699627243,,,119,001,2019_Mar_19_1007,test_run,3.0.6,59.983130352831616,
62,EFW,EFW_32_fyller_070319.wav,j,t,,,,,0,53,53,61,,,,,,,,,,,,,,,j,1,0.6030041330086533,,,119,001,2019_Mar_19_1007,test_run,3.0.6,59.983130352831616,
169,ENW,ENW_79_lyxmare_150219.wav,n,t,,,,,0,54,54,168,,,,,,,,,,,,,,,n,1,0.9354766939941328,,,119,001,2019_Mar_19_1007,test_run,3.0.6,59.983130352831616,
111,ENW,ENW_21_tjulning_150219.wav,n,t,,,,,0,55,55,110,,,,,,,,,,,,,,,j,0,0.6694571389816701,,,119,001,2019_Mar_19_1007,test_run,3.0.6,59.983130352831616,
36,EFW,EFW_6_massa_070319.wav,j,t,,,,,0,56,56,35,,,,,,,,,,,,,,,j,1,0.33570619201054797,,,119,001,2019_Mar_19_1007,test_run,3.0.6,59.983130352831616,
43,EFW,EFW_13_elever_070319.wav,j,t,,,,,0,57,57,42,,,,,,,,,,,,,,,j,1,0.4021071979950648,,,119,001,2019_Mar_19_1007,test_run,3.0.6,59.983130352831616,
26,ETW,ETW_26_olympiad_070319.wav,j,t,,,,,0,58,58,25,,,,,,,,,,,,,,,j,1,0.5863316720060539,,,119,001,2019_Mar_19_1007,test_run,3.0.6,59.983130352831616,
163,ENW,ENW_73_vimmankalla_150219.wav,n,t,,,,,0,59,59,162,,,,,,,,,,,,,,,n,1,1.5003187649999745,,,119,001,2019_Mar_19_1007,test_run,3.0.6,59.983130352831616,
37,EFW,EFW_7_sociala_070319.wav,j,t,,,,,0,60,60,36,,,,,,,,,,,,,,,j,1,0.4525499769952148,,,119,001,2019_Mar_19_1007,test_run,3.0.6,59.983130352831616,
55,EFW,EFW_25_informera_070319.wav,j,t,,,,,0,61,61,54,,,,,,,,,,,,,,,j,1,1.067074156977469,,,119,001,2019_Mar_19_1007,test_run,3.0.6,59.983130352831616,
104,ENW,ENW_14_kärmenor_150219.wav,n,t,,,,,0,62,62,103,,,,,,,,,,,,,,,n,1,1.6671318909793627,,,119,001,2019_Mar_19_1007,test_run,3.0.6,59.983130352831616,
120,ENW,ENW_30_sojera_150219.wav,n,t,,,,,0,63,63,119,,,,,,,,,,,,,,,n,1,0.6525262310169637,,,119,001,2019_Mar_19_1007,test_run,3.0.6,59.983130352831616,
85,EFW,EFW_55_oroar_070319.wav,j,t,,,,,0,64,64,84,,,,,,,,,,,,,,,j,1,0.3690014529856853,,,119,001,2019_Mar_19_1007,test_run,3.0.6,59.983130352831616,
127,ENW,ENW_37_spallrivet_150219.wav,n,t,,,,,0,65,65,126,,,,,,,,,,,,,,,n,1,0.5859923870011698,,,119,001,2019_Mar_19_1007,test_run,3.0.6,59.983130352831616,
119,ENW,ENW_29_uppskira_150219.wav,n,t,,,,,0,66,66,118,,,,,,,,,,,,,,,n,1,2.219290503009688,,,119,001,2019_Mar_19_1007,test_run,3.0.6,59.983130352831616,
162,ENW,ENW_72_urskecken_150219.wav,n,t,,,,,0,67,67,161,,,,,,,,,,,,,,,n,1,2.5858409730135463,,,119,001,2019_Mar_19_1007,test_run,3.0.6,59.983130352831616,
20,ETW,ETW_20_loppmarknad_070319.wav,j,t,,,,,0,68,68,19,,,,,,,,,,,,,,,j,1,0.518914175016107,,,119,001,2019_Mar_19_1007,test_run,3.0.6,59.983130352831616,
112,ENW,ENW_22_fjäserna_150219.wav,n,t,,,,,0,69,69,111,,,,,,,,,,,,,,,n,1,0.7521322550019249,,,119,001,2019_Mar_19_1007,test_run,3.0.6,59.983130352831616,
25,ETW,ETW_25_mikrosekund_070319.wav,j,t,,,,,0,70,70,24,,,,,,,,,,,,,,,j,1,0.602252762997523,,,119,001,2019_Mar_19_1007,test_run,3.0.6,59.983130352831616,
140,ENW,ENW_50_omsänare_150219.wav,n,t,,,,,0,71,71,139,,,,,,,,,,,,,,,n,1,2.453103365987772,,,119,001,2019_Mar_19_1007,test_run,3.0.6,59.983130352831616,
33,EFW,EFW_3_familjen_070319.wav,j,t,,,,,0,72,72,32,,,,,,,,,,,,,,,j,1,0.8528535480145365,,,119,001,2019_Mar_19_1007,test_run,3.0.6,59.983130352831616,
18,ETW,ETW_18_husfasad_070319.wav,j,t,,,,,0,73,73,17,,,,,,,,,,,,,,,j,1,0.35290075099328533,,,119,001,2019_Mar_19_1007,test_run,3.0.6,59.983130352831616,
8,ETW,ETW_8_samfund_070319.wav,j,t,,,,,0,74,74,7,,,,,,,,,,,,,,,j,1,0.3692703490087297,,,119,001,2019_Mar_19_1007,test_run,3.0.6,59.983130352831616,
103,ENW,ENW_13_forvaron_150219.wav,n,t,,,,,0,75,75,102,,,,,,,,,,,,,,,n,1,1.5027941669977736,,,119,001,2019_Mar_19_1007,test_run,3.0.6,59.983130352831616,
5,ETW,ETW_5_skepnad_070319.wav,j,t,,,,,0,76,76,4,,,,,,,,,,,,,,,j,1,0.6197839439846575,,,119,001,2019_Mar_19_1007,test_run,3.0.6,59.983130352831616,
3,ETW,ETW_3_choklad_070319.wav,j,t,,,,,0,77,77,2,,,,,,,,,,,,,,,j,1,1.1027518369955942,,,119,001,2019_Mar_19_1007,test_run,3.0.6,59.983130352831616,
72,EFW,EFW_42_naavaron_070319.wav,j,t,,,,,0,78,78,71,,,,,,,,,,,,,,,j,1,0.8188999909907579,,,119,001,2019_Mar_19_1007,test_run,3.0.6,59.983130352831616,
45,EFW,EFW_15_oeverens_070319.wav,j,t,,,,,0,79,79,44,,,,,,,,,,,,,,,j,1,0.38586405498790555,,,119,001,2019_Mar_19_1007,test_run,3.0.6,59.983130352831616,
180,ENW,ENW_90_skrivinar_150219.wav,n,t,,,,,0,80,80,179,,,,,,,,,,,,,,,n,1,1.9190544209850486,,,119,001,2019_Mar_19_1007,test_run,3.0.6,59.983130352831616,
124,ENW,ENW_34_jomera_150219.wav,n,t,,,,,0,81,81,123,,,,,,,,,,,,,,,n,1,0.43627548700897023,,,119,001,2019_Mar_19_1007,test_run,3.0.6,59.983130352831616,
178,ENW,ENW_88_marsifen_150219.wav,n,t,,,,,0,82,82,177,,,,,,,,,,,,,,,n,1,0.48662924001109786,,,119,001,2019_Mar_19_1007,test_run,3.0.6,59.983130352831616,
156,ENW,ENW_66_voarsmenar_150219.wav,n,t,,,,,0,83,83,155,,,,,,,,,,,,,,,n,1,0.38540360701153986,,,119,001,2019_Mar_19_1007,test_run,3.0.6,59.983130352831616,
82,EFW,EFW_52_framhoalla_070319.wav,j,t,,,,,0,84,84,81,,,,,,,,,,,,,,,j,1,0.33616726798936725,,,119,001,2019_Mar_19_1007,test_run,3.0.6,59.983130352831616,
50,EFW,EFW_20_fenomen_070319.wav,j,t,,,,,0,85,85,49,,,,,,,,,,,,,,,j,1,0.3022995869978331,,,119,001,2019_Mar_19_1007,test_run,3.0.6,59.983130352831616,
29,ETW,ETW_29_oeverhuvud_070319.wav,j,t,,,,,0,86,86,28,,,,,,,,,,,,,,,j,1,1.452346492005745,,,119,001,2019_Mar_19_1007,test_run,3.0.6,59.983130352831616,
31,EFW,EFW_1_allmaan_070319.wav,j,t,,,,,0,87,87,30,,,,,,,,,,,,,,,j,1,0.6521185770106968,,,119,001,2019_Mar_19_1007,test_run,3.0.6,59.983130352831616,
92,ENW,ENW_2_overralka_150219.wav,n,t,,,,,0,88,88,91,,,,,,,,,,,,,,,n,1,1.168936421017861,,,119,001,2019_Mar_19_1007,test_run,3.0.6,59.983130352831616,
125,ENW,ENW_35_nymaljen_150219.wav,n,t,,,,,0,89,89,124,,,,,,,,,,,,,,,n,1,1.485676448995946,,,119,001,2019_Mar_19_1007,test_run,3.0.6,59.983130352831616,
101,ENW,ENW_11_fränna_150219.wav,n,t,,,,,0,90,90,100,,,,,,,,,,,,,,,n,1,0.3691510199860204,,,119,001,2019_Mar_19_1007,test_run,3.0.6,59.983130352831616,
157,ENW,ENW_67_oafreskar_150219.wav,n,t,,,,,0,91,91,156,,,,,,,,,,,,,,,n,1,0.5189015939831734,,,119,001,2019_Mar_19_1007,test_run,3.0.6,59.983130352831616,
23,ETW,ETW_23_promenad_070319.wav,j,t,,,,,0,92,92,22,,,,,,,,,,,,,,,j,1,0.40226584498304874,,,119,001,2019_Mar_19_1007,test_run,3.0.6,59.983130352831616,
68,EFW,EFW_38_foerefoell_070319.wav,j,t,,,,,0,93,93,67,,,,,,,,,,,,,,,j,1,0.6696696330036502,,,119,001,2019_Mar_19_1007,test_run,3.0.6,59.983130352831616,
91,ENW,ENW_1_norsimerar_150219.wav,n,t,,,,,0,94,94,90,,,,,,,,,,,,,,,n,1,0.5696728490001988,,,119,001,2019_Mar_19_1007,test_run,3.0.6,59.983130352831616,
172,ENW,ENW_82_värskappa_150219.wav,n,t,,,,,0,95,95,171,,,,,,,,,,,,,,,n,1,0.5521195369947236,,,119,001,2019_Mar_19_1007,test_run,3.0.6,59.983130352831616,
148,ENW,ENW_58_malvossa_150219.wav,n,t,,,,,0,96,96,147,,,,,,,,,,,,,,,n,1,1.119306997017702,,,119,001,2019_Mar_19_1007,test_run,3.0.6,59.983130352831616,
54,EFW,EFW_24_foersvinner_070319.wav,j,t,,,,,0,97,97,53,,,,,,,,,,,,,,,j,1,0.3526779829990119,,,119,001,2019_Mar_19_1007,test_run,3.0.6,59.983130352831616,
2,ETW,ETW_2_skillnad_070319.wav,j,t,,,,,0,98,98,1,,,,,,,,,,,,,,,j,1,0.503320788993733,,,119,001,2019_Mar_19_1007,test_run,3.0.6,59.983130352831616,
170,ENW,ENW_80_tjarfera_150219.wav,n,t,,,,,0,99,99,169,,,,,,,,,,,,,,,n,1,0.43598326700157486,,,119,001,2019_Mar_19_1007,test_run,3.0.6,59.983130352831616,
56,EFW,EFW_26_armarna_070319.wav,j,t,,,,,0,100,100,55,,,,,,,,,,,,,,,n,0,8.20207834301982,,,119,001,2019_Mar_19_1007,test_run,3.0.6,59.983130352831616,
47,EFW,EFW_17_januari_070319.wav,j,t,,,,,0,101,101,46,,,,,,,,,,,,,,,j,1,0.3024423460010439,,,119,001,2019_Mar_19_1007,test_run,3.0.6,59.983130352831616,
7,ETW,ETW_7_hemland_070319.wav,j,t,,,,,0,102,102,6,,,,,,,,,,,,,,,j,1,0.3357920139969792,,,119,001,2019_Mar_19_1007,test_run,3.0.6,59.983130352831616,
13,ETW,ETW_13_oevervoald_070319.wav,j,t,,,,,0,103,103,12,,,,,,,,,,,,,,,j,1,0.652249540988123,,,119,001,2019_Mar_19_1007,test_run,3.0.6,59.983130352831616,
60,EFW,EFW_30_officiella_070319.wav,j,t,,,,,0,104,104,59,,,,,,,,,,,,,,,j,1,0.335633060982218,,,119,001,2019_Mar_19_1007,test_run,3.0.6,59.983130352831616,
139,ENW,ENW_49_hälskrena_150219.wav,n,t,,,,,0,105,105,138,,,,,,,,,,,,,,,n,1,0.9192865719960537,,,119,001,2019_Mar_19_1007,test_run,3.0.6,59.983130352831616,
76,EFW,EFW_46_foerhoer_070319.wav,j,t,,,,,0,106,106,75,,,,,,,,,,,,,,,j,1,0.35280233598314226,,,119,001,2019_Mar_19_1007,test_run,3.0.6,59.983130352831616,
9,ETW,ETW_9_haarmed_070319.wav,j,t,,,,,0,107,107,8,,,,,,,,,,,,,,,j,1,0.6520324930024799,,,119,001,2019_Mar_19_1007,test_run,3.0.6,59.983130352831616,
84,EFW,EFW_54_romaner_070319.wav,j,t,,,,,0,108,108,83,,,,,,,,,,,,,,,j,1,2.4193102749995887,,,119,001,2019_Mar_19_1007,test_run,3.0.6,59.983130352831616,
48,EFW,EFW_18_nummer_070319.wav,j,t,,,,,0,109,109,47,,,,,,,,,,,,,,,j,1,1.419538812013343,,,119,001,2019_Mar_19_1007,test_run,3.0.6,59.983130352831616,
30,ETW,ETW_30_oeverlevnad_070319.wav,j,t,,,,,0,110,110,29,,,,,,,,,,,,,,,j,1,0.8838266910170205,,,119,001,2019_Mar_19_1007,test_run,3.0.6,59.983130352831616,
49,EFW,EFW_19_roerelse_070319.wav,j,t,,,,,0,111,111,48,,,,,,,,,,,,,,,j,1,0.352998985996237,,,119,001,2019_Mar_19_1007,test_run,3.0.6,59.983130352831616,
24,ETW,ETW_24_oeverfloed_070319.wav,j,t,,,,,0,112,112,23,,,,,,,,,,,,,,,j,1,0.4188061039894819,,,119,001,2019_Mar_19_1007,test_run,3.0.6,59.983130352831616,
64,EFW,EFW_34_sommar_070319.wav,j,t,,,,,0,113,113,63,,,,,,,,,,,,,,,j,1,0.36965914999018423,,,119,001,2019_Mar_19_1007,test_run,3.0.6,59.983130352831616,
116,ENW,ENW_26_anufera_150219.wav,n,t,,,,,0,114,114,115,,,,,,,,,,,,,,,n,1,0.31867613102076575,,,119,001,2019_Mar_19_1007,test_run,3.0.6,59.983130352831616,
100,ENW,ENW_10_skinnamer_150219.wav,n,t,,,,,0,115,115,99,,,,,,,,,,,,,,,n,1,0.3855739480059128,,,119,001,2019_Mar_19_1007,test_run,3.0.6,59.983130352831616,
16,ETW,ETW_16_episod_070319.wav,j,t,,,,,0,116,116,15,,,,,,,,,,,,,,,j,1,0.3026563529856503,,,119,001,2019_Mar_19_1007,test_run,3.0.6,59.983130352831616,
11,ETW,ETW_11_period_070319.wav,j,t,,,,,0,117,117,10,,,,,,,,,,,,,,,j,1,0.3669232730171643,,,119,001,2019_Mar_19_1007,test_run,3.0.6,59.983130352831616,
66,EFW,EFW_36_haarifroan_070319.wav,j,t,,,,,0,118,118,65,,,,,,,,,,,,,,,j,1,0.4364009429991711,,,119,001,2019_Mar_19_1007,test_run,3.0.6,59.983130352831616,
32,EFW,EFW_2_snarare_070319.wav,j,t,,,,,0,119,119,31,,,,,,,,,,,,,,,j,1,0.3357289790001232,,,119,001,2019_Mar_19_1007,test_run,3.0.6,59.983130352831616,
164,ENW,ENW_74_malsera_150219.wav,n,t,,,,,0,120,120,163,,,,,,,,,,,,,,,n,1,0.3193573350145016,,,119,001,2019_Mar_19_1007,test_run,3.0.6,59.983130352831616,
174,ENW,ENW_84_hurmarna_150219.wav,n,t,,,,,0,121,121,173,,,,,,,,,,,,,,,j,0,0.30264000900206156,,,119,001,2019_Mar_19_1007,test_run,3.0.6,59.983130352831616,
63,EFW,EFW_33_elva_070319.wav,j,t,,,,,0,122,122,62,,,,,,,,,,,,,,,j,1,1.035456092999084,,,119,001,2019_Mar_19_1007,test_run,3.0.6,59.983130352831616,
110,ENW,ENW_20_invonen_150219.wav,n,t,,,,,0,123,123,109,,,,,,,,,,,,,,,n,1,1.4193308940157294,,,119,001,2019_Mar_19_1007,test_run,3.0.6,59.983130352831616,
44,EFW,EFW_14_foersoeken_070319.wav,j,t,,,,,0,124,124,43,,,,,,,,,,,,,,,j,1,0.4188627770054154,,,119,001,2019_Mar_19_1007,test_run,3.0.6,59.983130352831616,
142,ENW,ENW_52_filofyll_150219.wav,n,t,,,,,0,125,125,141,,,,,,,,,,,,,,,n,1,0.4359436900122091,,,119,001,2019_Mar_19_1007,test_run,3.0.6,59.983130352831616,
53,EFW,EFW_23_aamne_070319.wav,j,t,,,,,0,126,126,52,,,,,,,,,,,,,,,j,1,0.3531060469977092,,,119,001,2019_Mar_19_1007,test_run,3.0.6,59.983130352831616,
159,ENW,ENW_69_mjohusa_150219.wav,n,t,,,,,0,127,127,158,,,,,,,,,,,,,,,n,1,0.31718803898547776,,,119,001,2019_Mar_19_1007,test_run,3.0.6,59.983130352831616,
166,ENW,ENW_76_omfläskor_150219.wav,n,t,,,,,0,128,128,165,,,,,,,,,,,,,,,n,1,0.7518452990043443,,,119,001,2019_Mar_19_1007,test_run,3.0.6,59.983130352831616,
168,ENW,ENW_78_morvinder_150219.wav,n,t,,,,,0,129,129,167,,,,,,,,,,,,,,,n,1,0.33638104901183397,,,119,001,2019_Mar_19_1007,test_run,3.0.6,59.983130352831616,
14,ETW,ETW_14_myriad_070319.wav,j,t,,,,,0,130,130,13,,,,,,,,,,,,,,,j,1,0.4021046400011983,,,119,001,2019_Mar_19_1007,test_run,3.0.6,59.983130352831616,
6,ETW,ETW_6_vemod_070319.wav,j,t,,,,,0,131,131,5,,,,,,,,,,,,,,,j,1,0.3358893230033573,,,119,001,2019_Mar_19_1007,test_run,3.0.6,59.983130352831616,
129,ENW,ENW_39_ljusonar_150219.wav,n,t,,,,,0,132,132,128,,,,,,,,,,,,,,,n,1,1.6689914699818473,,,119,001,2019_Mar_19_1007,test_run,3.0.6,59.983130352831616,
65,EFW,EFW_35_affaarer_070319.wav,j,t,,,,,0,133,133,64,,,,,,,,,,,,,,,j,1,0.35313483999925666,,,119,001,2019_Mar_19_1007,test_run,3.0.6,59.983130352831616,
151,ENW,ENW_61_myckskina_150219.wav,n,t,,,,,0,134,134,150,,,,,,,,,,,,,,,n,1,0.5026160550187342,,,119,001,2019_Mar_19_1007,test_run,3.0.6,59.983130352831616,
145,ENW,ENW_55_invaskin_150219.wav,n,t,,,,,0,135,135,144,,,,,,,,,,,,,,,n,1,0.43653599498793483,,,119,001,2019_Mar_19_1007,test_run,3.0.6,59.983130352831616,
147,ENW,ENW_57_flovanning_150219.wav,n,t,,,,,0,136,136,146,,,,,,,,,,,,,,,n,1,0.7689369000145234,,,119,001,2019_Mar_19_1007,test_run,3.0.6,59.983130352831616,
114,ENW,ENW_24_samjoner_150219.wav,n,t,,,,,0,137,137,113,,,,,,,,,,,,,,,n,1,1.1022548229957465,,,119,001,2019_Mar_19_1007,test_run,3.0.6,59.983130352831616,
4,ETW,ETW_4_livraadd_070319.wav,j,t,,,,,0,138,138,3,,,,,,,,,,,,,,,j,1,7.7528178060019854,,,119,001,2019_Mar_19_1007,test_run,3.0.6,59.983130352831616,
158,ENW,ENW_68_presionar_150219.wav,n,t,,,,,0,139,139,157,,,,,,,,,,,,,,,n,1,0.3521043969958555,,,119,001,2019_Mar_19_1007,test_run,3.0.6,59.983130352831616,
130,ENW,ENW_40_knipackar_150219.wav,n,t,,,,,0,140,140,129,,,,,,,,,,,,,,,n,1,0.7022756649821531,,,119,001,2019_Mar_19_1007,test_run,3.0.6,59.983130352831616,
136,ENW,ENW_46_pommera_150219.wav,n,t,,,,,0,141,141,135,,,,,,,,,,,,,,,n,1,0.33553916300297715,,,119,001,2019_Mar_19_1007,test_run,3.0.6,59.983130352831616,
34,EFW,EFW_4_foerminska_070319.wav,j,t,,,,,0,142,142,33,,,,,,,,,,,,,,,j,1,0.28616840098402463,,,119,001,2019_Mar_19_1007,test_run,3.0.6,59.983130352831616,
146,ENW,ENW_56_lysskarna_150219.wav,n,t,,,,,0,143,143,145,,,,,,,,,,,,,,,n,1,0.35226555800181814,,,119,001,2019_Mar_19_1007,test_run,3.0.6,59.983130352831616,
73,EFW,EFW_43_halvoar_070319.wav,j,t,,,,,0,144,144,72,,,,,,,,,,,,,,,j,1,0.30280269897775725,,,119,001,2019_Mar_19_1007,test_run,3.0.6,59.983130352831616,
78,EFW,EFW_48_varifroan_070319.wav,j,t,,,,,0,145,145,77,,,,,,,,,,,,,,,j,1,0.36960666300728917,,,119,001,2019_Mar_19_1007,test_run,3.0.6,59.983130352831616,
107,ENW,ENW_17_kopynnor_150219.wav,n,t,,,,,0,146,146,106,,,,,,,,,,,,,,,n,1,0.5022588490101043,,,119,001,2019_Mar_19_1007,test_run,3.0.6,59.983130352831616,
134,ENW,ENW_44_inlivna_150219.wav,n,t,,,,,0,147,147,133,,,,,,,,,,,,,,,n,1,0.3024427689961158,,,119,001,2019_Mar_19_1007,test_run,3.0.6,59.983130352831616,
21,ETW,ETW_21_marmelad_070319.wav,j,t,,,,,0,148,148,20,,,,,,,,,,,,,,,j,1,1.6693264009954873,,,119,001,2019_Mar_19_1007,test_run,3.0.6,59.983130352831616,
27,ETW,ETW_27_medellivslaangd_070319.wav,j,t,,,,,0,149,149,26,,,,,,,,,,,,,,,j,1,0.3357571100059431,,,119,001,2019_Mar_19_1007,test_run,3.0.6,59.983130352831616,
109,ENW,ENW_19_morloren_150219.wav,n,t,,,,,0,150,150,108,,,,,,,,,,,,,,,n,1,0.2838491449947469,,,119,001,2019_Mar_19_1007,test_run,3.0.6,59.983130352831616,
154,ENW,ENW_64_havskvare_150219.wav,n,t,,,,,0,151,151,153,,,,,,,,,,,,,,,n,1,0.2861252920120023,,,119,001,2019_Mar_19_1007,test_run,3.0.6,59.983130352831616,
83,EFW,EFW_53_sovrum_070319.wav,j,t,,,,,0,152,152,82,,,,,,,,,,,,,,,j,1,0.250579760002438,,,119,001,2019_Mar_19_1007,test_run,3.0.6,59.983130352831616,
10,ETW,ETW_10_nomad_070319.wav,j,t,,,,,0,153,153,9,,,,,,,,,,,,,,,j,1,0.4528941659955308,,,119,001,2019_Mar_19_1007,test_run,3.0.6,59.983130352831616,
141,ENW,ENW_51_skillare_150219.wav,n,t,,,,,0,154,154,140,,,,,,,,,,,,,,,n,1,0.26980415897560306,,,119,001,2019_Mar_19_1007,test_run,3.0.6,59.983130352831616,
80,EFW,EFW_50_snaalla_070319.wav,j,t,,,,,0,155,155,79,,,,,,,,,,,,,,,j,1,0.3363971000071615,,,119,001,2019_Mar_19_1007,test_run,3.0.6,59.983130352831616,
1,ETW,ETW_1_oskuld_070319.wav,j,t,,,,,0,156,156,0,,,,,,,,,,,,,,,j,1,0.33582454902352765,,,119,001,2019_Mar_19_1007,test_run,3.0.6,59.983130352831616,
41,EFW,EFW_11_maanniskor_070319.wav,j,t,,,,,0,157,157,40,,,,,,,,,,,,,,,j,1,0.46935091601335444,,,119,001,2019_Mar_19_1007,test_run,3.0.6,59.983130352831616,
89,EFW,EFW_59_filosofin_070319.wav,j,t,,,,,0,158,158,88,,,,,,,,,,,,,,,j,1,0.25282388998311944,,,119,001,2019_Mar_19_1007,test_run,3.0.6,59.983130352831616,
133,ENW,ENW_43_axalän_150219.wav,n,t,,,,,0,159,159,132,,,,,,,,,,,,,,,n,1,0.33573488201363944,,,119,001,2019_Mar_19_1007,test_run,3.0.6,59.983130352831616,
12,ETW,ETW_12_offerlund_070319.wav,j,t,,,,,0,160,160,11,,,,,,,,,,,,,,,n,0,0.3521919839840848,,,119,001,2019_Mar_19_1007,test_run,3.0.6,59.983130352831616,
128,ENW,ENW_38_roakanier_150219.wav,n,t,,,,,0,161,161,127,,,,,,,,,,,,,,,n,1,0.35221814300166443,,,119,001,2019_Mar_19_1007,test_run,3.0.6,59.983130352831616,
160,ENW,ENW_70_roklarner_150219.wav,n,t,,,,,0,162,162,159,,,,,,,,,,,,,,,n,1,0.25262680399464443,,,119,001,2019_Mar_19_1007,test_run,3.0.6,59.983130352831616,
108,ENW,ENW_18_moalursena_150219.wav,n,t,,,,,0,163,163,107,,,,,,,,,,,,,,,n,1,0.5360187450132798,,,119,001,2019_Mar_19_1007,test_run,3.0.6,59.983130352831616,
117,ENW,ENW_27_lyssvinner_150219.wav,n,t,,,,,0,164,164,116,,,,,,,,,,,,,,,n,1,0.3022354870045092,,,119,001,2019_Mar_19_1007,test_run,3.0.6,59.983130352831616,
19,ETW,ETW_19_saallskapshund_070319.wav,j,t,,,,,0,165,165,18,,,,,,,,,,,,,,,j,1,0.28593461599666625,,,119,001,2019_Mar_19_1007,test_run,3.0.6,59.983130352831616,
42,EFW,EFW_12_foeremoal_070319.wav,j,t,,,,,0,166,166,41,,,,,,,,,,,,,,,j,1,0.2865791379881557,,,119,001,2019_Mar_19_1007,test_run,3.0.6,59.983130352831616,
38,EFW,EFW_8_samman_070319.wav,j,t,,,,,0,167,167,37,,,,,,,,,,,,,,,j,1,0.36952822099556215,,,119,001,2019_Mar_19_1007,test_run,3.0.6,59.983130352831616,
71,EFW,EFW_41_infinna_070319.wav,j,t,,,,,0,168,168,70,,,,,,,,,,,,,,,j,1,0.3187493550067302,,,119,001,2019_Mar_19_1007,test_run,3.0.6,59.983130352831616,
90,EFW,EFW_60_insulin_070319.wav,j,t,,,,,0,169,169,89,,,,,,,,,,,,,,,j,1,0.26892434200271964,,,119,001,2019_Mar_19_1007,test_run,3.0.6,59.983130352831616,
175,ENW,ENW_85_forlinna_150219.wav,n,t,,,,,0,170,170,174,,,,,,,,,,,,,,,n,1,0.7362038179999217,,,119,001,2019_Mar_19_1007,test_run,3.0.6,59.983130352831616,
79,EFW,EFW_49_vaasen_070319.wav,j,t,,,,,0,171,171,78,,,,,,,,,,,,,,,j,1,0.5505481979926117,,,119,001,2019_Mar_19_1007,test_run,3.0.6,59.983130352831616,
115,ENW,ENW_25_affierar_150219.wav,n,t,,,,,0,172,172,114,,,,,,,,,,,,,,,n,1,0.5023693020048086,,,119,001,2019_Mar_19_1007,test_run,3.0.6,59.983130352831616,
81,EFW,EFW_51_seminarier_070319.wav,j,t,,,,,0,173,173,80,,,,,,,,,,,,,,,j,1,0.9694873989792541,,,119,001,2019_Mar_19_1007,test_run,3.0.6,59.983130352831616,
171,ENW,ENW_81_persifera_150219.wav,n,t,,,,,0,174,174,170,,,,,,,,,,,,,,,n,1,0.31714441199437715,,,119,001,2019_Mar_19_1007,test_run,3.0.6,59.983130352831616,
143,ENW,ENW_53_svarmvisso_150219.wav,n,t,,,,,0,175,175,142,,,,,,,,,,,,,,,n,1,0.2670810330018867,,,119,001,2019_Mar_19_1007,test_run,3.0.6,59.983130352831616,
75,EFW,EFW_45_innanfoer_070319.wav,j,t,,,,,0,176,176,74,,,,,,,,,,,,,,,j,1,0.2861914139939472,,,119,001,2019_Mar_19_1007,test_run,3.0.6,59.983130352831616,
161,ENW,ENW_71_forskäckla_150219.wav,n,t,,,,,0,177,177,160,,,,,,,,,,,,,,,n,1,0.2862444859929383,,,119,001,2019_Mar_19_1007,test_run,3.0.6,59.983130352831616,
87,EFW,EFW_57_loenerna_070319.wav,j,t,,,,,0,178,178,86,,,,,,,,,,,,,,,j,1,0.33573518999037333,,,119,001,2019_Mar_19_1007,test_run,3.0.6,59.983130352831616,
153,ENW,ENW_63_femyrisk_150219.wav,n,t,,,,,0,179,179,152,,,,,,,,,,,,,,,n,1,0.2863723849877715,,,119,001,2019_Mar_19_1007,test_run,3.0.6,59.983130352831616,
2,TDF,TDF_2_ved_070319.wav,,,1,rating_d_final.csv,d,final,,,,,0,0,0,0,0,0,0,0,0,0,0,1,,,,,,6,18.571,119,001,2019_Mar_19_1007,test_run,3.0.6,59.983130352831616,
32,TTF,TTF_32_hoart_070319.wav,,,1,rating_d_final.csv,d,final,,,,,0,0,0,0,0,0,0,0,0,1,1,31,,,,,,2,8.254,119,001,2019_Mar_19_1007,test_run,3.0.6,59.983130352831616,
25,TTF,TTF_25_synt_070319.wav,,,1,rating_d_final.csv,d,final,,,,,0,0,0,0,0,0,0,0,0,2,2,24,,,,,,6,6.554,119,001,2019_Mar_19_1007,test_run,3.0.6,59.983130352831616,
3,TDF,TDF_3_raad_070319.wav,,,1,rating_d_final.csv,d,final,,,,,0,0,0,0,0,0,0,0,0,3,3,2,,,,,,7,5.353,119,001,2019_Mar_19_1007,test_run,3.0.6,59.983130352831616,
17,TTF,TTF_17_sket_070319.wav,,,1,rating_d_final.csv,d,final,,,,,0,0,0,0,0,0,0,0,0,4,4,16,,,,,,1,2.255,119,001,2019_Mar_19_1007,test_run,3.0.6,59.983130352831616,
9,TDF,TDF_9_bod_070319.wav,,,1,rating_d_final.csv,d,final,,,,,0,0,0,0,0,0,0,0,0,5,5,8,,,,,,7,3.854,119,001,2019_Mar_19_1007,test_run,3.0.6,59.983130352831616,
26,TTF,TTF_26_rymt_070319.wav,,,1,rating_d_final.csv,d,final,,,,,0,0,0,0,0,0,0,0,0,6,6,25,,,,,,7,1.57,119,001,2019_Mar_19_1007,test_run,3.0.6,59.983130352831616,
15,TDF,TDF_15_nod_070319.wav,,,1,rating_d_final.csv,d,final,,,,,0,0,0,0,0,0,0,0,0,7,7,14,,,,,,6,4.437,119,001,2019_Mar_19_1007,test_run,3.0.6,59.983130352831616,
11,TDF,TDF_11_svid_070319.wav,,,1,rating_d_final.csv,d,final,,,,,0,0,0,0,0,0,0,0,0,8,8,10,,,,,,1,3.437,119,001,2019_Mar_19_1007,test_run,3.0.6,59.983130352831616,
31,TTF,TTF_31_brott_070319.wav,,,1,rating_d_final.csv,d,final,,,,,0,0,0,0,0,0,0,0,0,9,9,30,,,,,,1,0.82,119,001,2019_Mar_19_1007,test_run,3.0.6,59.983130352831616,
18,TTF,TTF_18_skjut_070319.wav,,,1,rating_d_final.csv,d,final,,,,,0,0,0,0,0,0,0,0,0,10,10,17,,,,,,3,3.071,119,001,2019_Mar_19_1007,test_run,3.0.6,59.983130352831616,
23,TTF,TTF_23_hut_070319.wav,,,1,rating_d_final.csv,d,final,,,,,0,0,0,0,0,0,0,0,0,11,11,22,,,,,,6,5.137,119,001,2019_Mar_19_1007,test_run,3.0.6,59.983130352831616,
28,TTF,TTF_28_brant_070319.wav,,,1,rating_d_final.csv,d,final,,,,,0,0,0,0,0,0,0,0,0,12,12,27,,,,,,4,13.785,119,001,2019_Mar_19_1007,test_run,3.0.6,59.983130352831616,
29,TTF,TTF_29_bett_070319.wav,,,1,rating_d_final.csv,d,final,,,,,0,0,0,0,0,0,0,0,0,13,13,28,,,,,,1,1.721,119,001,2019_Mar_19_1007,test_run,3.0.6,59.983130352831616,
1,TDF,TDF_1_rid_070319.wav,,,1,rating_d_final.csv,d,final,,,,,0,0,0,0,0,0,0,0,0,14,14,0,,,,,,7,1.155,119,001,2019_Mar_19_1007,test_run,3.0.6,59.983130352831616,
8,TDF,TDF_8_nod_070319.wav,,,1,rating_d_final.csv,d,final,,,,,0,0,0,0,0,0,0,0,0,15,15,7,,,,,,7,3.504,119,001,2019_Mar_19_1007,test_run,3.0.6,59.983130352831616,
5,TDF,TDF_5_voad_070319.wav,,,1,rating_d_final.csv,d,final,,,,,0,0,0,0,0,0,0,0,0,16,16,4,,,,,,7,1.804,119,001,2019_Mar_19_1007,test_run,3.0.6,59.983130352831616,
27,TTF,TTF_27_sant_070319.wav,,,1,rating_d_final.csv,d,final,,,,,0,0,0,0,0,0,0,0,0,17,17,26,,,,,,5,4.987,119,001,2019_Mar_19_1007,test_run,3.0.6,59.983130352831616,
14,TDF,TDF_14_mod_070319.wav,,,1,rating_d_final.csv,d,final,,,,,0,0,0,0,0,0,0,0,0,18,18,13,,,,,,6,4.52,119,001,2019_Mar_19_1007,test_run,3.0.6,59.983130352831616,
10,TDF,TDF_10_brod_070319.wav,,,1,rating_d_final.csv,d,final,,,,,0,0,0,0,0,0,0,0,0,19,19,9,,,,,,7,3.738,119,001,2019_Mar_19_1007,test_run,3.0.6,59.983130352831616,
22,TTF,TTF_22_het_070319.wav,,,1,rating_d_final.csv,d,final,,,,,0,0,0,0,0,0,0,0,0,20,20,21,,,,,,1,3.837,119,001,2019_Mar_19_1007,test_run,3.0.6,59.983130352831616,
4,TDF,TDF_4_rod_070319.wav,,,1,rating_d_final.csv,d,final,,,,,0,0,0,0,0,0,0,0,0,21,21,3,,,,,,7,1.054,119,001,2019_Mar_19_1007,test_run,3.0.6,59.983130352831616,
12,TDF,TDF_12_smed_070319.wav,,,1,rating_d_final.csv,d,final,,,,,0,0,0,0,0,0,0,0,0,22,22,11,,,,,,5,7.637,119,001,2019_Mar_19_1007,test_run,3.0.6,59.983130352831616,
7,TDF,TDF_7_vid_070319.wav,,,1,rating_d_final.csv,d,final,,,,,0,0,0,0,0,0,0,0,0,23,23,6,,,,,,1,1.136,119,001,2019_Mar_19_1007,test_run,3.0.6,59.983130352831616,
13,TDF,TDF_13_ljud_070319.wav,,,1,rating_d_final.csv,d,final,,,,,0,0,0,0,0,0,0,0,0,24,24,12,,,,,,7,3.137,119,001,2019_Mar_19_1007,test_run,3.0.6,59.983130352831616,
6,TDF,TDF_6_voard_070319.wav,,,1,rating_d_final.csv,d,final,,,,,0,0,0,0,0,0,0,0,0,25,25,5,,,,,,7,2.62,119,001,2019_Mar_19_1007,test_run,3.0.6,59.983130352831616,
16,TDF,TDF_16_fond_070319.wav,,,1,rating_d_final.csv,d,final,,,,,0,0,0,0,0,0,0,0,0,26,26,15,,,,,,7,1.821,119,001,2019_Mar_19_1007,test_run,3.0.6,59.983130352831616,
21,TTF,TTF_21_gjoet_070319.wav,,,1,rating_d_final.csv,d,final,,,,,0,0,0,0,0,0,0,0,0,27,27,20,,,,,,1,4.771,119,001,2019_Mar_19_1007,test_run,3.0.6,59.983130352831616,
20,TTF,TTF_20_got_070319.wav,,,1,rating_d_final.csv,d,final,,,,,0,0,0,0,0,0,0,0,0,28,28,19,,,,,,6,5.403,119,001,2019_Mar_19_1007,test_run,3.0.6,59.983130352831616,
30,TTF,TTF_30_slatt_070319.wav,,,1,rating_d_final.csv,d,final,,,,,0,0,0,0,0,0,0,0,0,29,29,29,,,,,,1,1.553,119,001,2019_Mar_19_1007,test_run,3.0.6,59.983130352831616,
19,TTF,TTF_19_skoet_070319.wav,,,1,rating_d_final.csv,d,final,,,,,0,0,0,0,0,0,0,0,0,30,30,18,,,,,,2,8.004,119,001,2019_Mar_19_1007,test_run,3.0.6,59.983130352831616,
24,TTF,TTF_24_smit_070319.wav,,,1,rating_d_final.csv,d,final,,,,,0,0,0,0,0,0,0,0,0,31,31,23,,,,,,7,4.871,119,001,2019_Mar_19_1007,test_run,3.0.6,59.983130352831616,
24,TDF,TDF_24_smid_070319.wav,,,1,rating_t_final.csv,t,final,,,,,0,0,0,0,0,1,1,1,0,0,0,23,,,,,,1,1.188,119,001,2019_Mar_19_1007,test_run,3.0.6,59.983130352831616,
9,TTF,TTF_9_bot_070319.wav,,,1,rating_t_final.csv,t,final,,,,,0,0,0,0,0,1,1,1,0,1,1,8,,,,,,4,6.121,119,001,2019_Mar_19_1007,test_run,3.0.6,59.983130352831616,
22,TDF,TDF_22_hed_070319.wav,,,1,rating_t_final.csv,t,final,,,,,0,0,0,0,0,1,1,1,0,2,2,21,,,,,,1,1.653,119,001,2019_Mar_19_1007,test_run,3.0.6,59.983130352831616,
2,TTF,TTF_2_vet_070319.wav,,,1,rating_t_final.csv,t,final,,,,,0,0,0,0,0,1,1,1,0,3,3,1,,,,,,7,0.887,119,001,2019_Mar_19_1007,test_run,3.0.6,59.983130352831616,
30,TDF,TDF_30_sladd_070319.wav,,,1,rating_t_final.csv,t,final,,,,,0,0,0,0,0,1,1,1,0,4,4,29,,,,,,1,2.753,119,001,2019_Mar_19_1007,test_run,3.0.6,59.983130352831616,
25,TDF,TDF_25_synd_070319.wav,,,1,rating_t_final.csv,t,final,,,,,0,0,0,0,0,1,1,1,0,5,5,24,,,,,,1,0.887,119,001,2019_Mar_19_1007,test_run,3.0.6,59.983130352831616,
28,TDF,TDF_28_brand_070319.wav,,,1,rating_t_final.csv,t,final,,,,,0,0,0,0,0,1,1,1,0,6,6,27,,,,,,1,3.437,119,001,2019_Mar_19_1007,test_run,3.0.6,59.983130352831616,
10,TTF,TTF_10_broet_070319.wav,,,1,rating_t_final.csv,t,final,,,,,0,0,0,0,0,1,1,1,0,7,7,9,,,,,,7,0.937,119,001,2019_Mar_19_1007,test_run,3.0.6,59.983130352831616,
5,TTF,TTF_5_voat_070319.wav,,,1,rating_t_final.csv,t,final,,,,,0,0,0,0,0,1,1,1,0,8,8,4,,,,,,7,0.586,119,001,2019_Mar_19_1007,test_run,3.0.6,59.983130352831616,
27,TDF,TDF_27_sand_070319.wav,,,1,rating_t_final.csv,t,final,,,,,0,0,0,0,0,1,1,1,0,9,9,26,,,,,,1,3.437,119,001,2019_Mar_19_1007,test_run,3.0.6,59.983130352831616,
15,TTF,TTF_15_not_070319.wav,,,1,rating_t_final.csv,t,final,,,,,0,0,0,0,0,1,1,1,0,10,10,14,,,,,,7,1.637,119,001,2019_Mar_19_1007,test_run,3.0.6,59.983130352831616,
4,TTF,TTF_4_roet_070319.wav,,,1,rating_t_final.csv,t,final,,,,,0,0,0,0,0,1,1,1,0,11,11,3,,,,,,5,4.287,119,001,2019_Mar_19_1007,test_run,3.0.6,59.983130352831616,
8,TTF,TTF_8_noet_070319.wav,,,1,rating_t_final.csv,t,final,,,,,0,0,0,0,0,1,1,1,0,12,12,7,,,,,,7,0.986,119,001,2019_Mar_19_1007,test_run,3.0.6,59.983130352831616,
29,TDF,TDF_29_baadd_070319.wav,,,1,rating_t_final.csv,t,final,,,,,0,0,0,0,0,1,1,1,0,13,13,28,,,,,,3,3.204,119,001,2019_Mar_19_1007,test_run,3.0.6,59.983130352831616,
19,TDF,TDF_19_sjod_070319.wav,,,1,rating_t_final.csv,t,final,,,,,0,0,0,0,0,1,1,1,0,14,14,18,,,,,,7,2.421,119,001,2019_Mar_19_1007,test_run,3.0.6,59.983130352831616,
1,TTF,TTF_1_rit_070319.wav,,,1,rating_t_final.csv,t,final,,,,,0,0,0,0,0,1,1,1,0,15,15,0,,,,,,5,2.987,119,001,2019_Mar_19_1007,test_run,3.0.6,59.983130352831616,
23,TDF,TDF_23_hud_070319.wav,,,1,rating_t_final.csv,t,final,,,,,0,0,0,0,0,1,1,1,0,16,16,22,,,,,,1,1.287,119,001,2019_Mar_19_1007,test_run,3.0.6,59.983130352831616,
20,TDF,TDF_20_god_070319.wav,,,1,rating_t_final.csv,t,final,,,,,0,0,0,0,0,1,1,1,0,17,17,19,,,,,,4,9.337,119,001,2019_Mar_19_1007,test_run,3.0.6,59.983130352831616,
3,TTF,TTF_3_raat_070319.wav,,,1,rating_t_final.csv,t,final,,,,,0,0,0,0,0,1,1,1,0,18,18,2,,,,,,6,4.854,119,001,2019_Mar_19_1007,test_run,3.0.6,59.983130352831616,
7,TTF,TTF_7_vit_070319.wav,,,1,rating_t_final.csv,t,final,,,,,0,0,0,0,0,1,1,1,0,19,19,6,,,,,,7,1.788,119,001,2019_Mar_19_1007,test_run,3.0.6,59.983130352831616,
13,TTF,TTF_13_gjut_070319.wav,,,1,rating_t_final.csv,t,final,,,,,0,0,0,0,0,1,1,1,0,20,20,12,,,,,,6,8.604,119,001,2019_Mar_19_1007,test_run,3.0.6,59.983130352831616,
26,TDF,TDF_26_rymd_070319.wav,,,1,rating_t_final.csv,t,final,,,,,0,0,0,0,0,1,1,1,0,21,21,25,,,,,,1,0.686,119,001,2019_Mar_19_1007,test_run,3.0.6,59.983130352831616,
16,TTF,TTF_16_font_070319.wav,,,1,rating_t_final.csv,t,final,,,,,0,0,0,0,0,1,1,1,0,22,22,15,,,,,,6,2.204,119,001,2019_Mar_19_1007,test_run,3.0.6,59.983130352831616,
11,TTF,TTF_11_svit_070319.wav,,,1,rating_t_final.csv,t,final,,,,,0,0,0,0,0,1,1,1,0,23,23,10,,,,,,7,0.905,119,001,2019_Mar_19_1007,test_run,3.0.6,59.983130352831616,
21,TDF,TDF_21_ljod _070319.wav,,,1,rating_t_final.csv,t,final,,,,,0,0,0,0,0,1,1,1,0,24,24,20,,,,,,1,3.32,119,001,2019_Mar_19_1007,test_run,3.0.6,59.983130352831616,
17,TDF,TDF_17_sked_070319.wav,,,1,rating_t_final.csv,t,final,,,,,0,0,0,0,0,1,1,1,0,25,25,16,,,,,,2,3.888,119,001,2019_Mar_19_1007,test_run,3.0.6,59.983130352831616,
31,TDF,TDF_31_brodd_070319.wav,,,1,rating_t_final.csv,t,final,,,,,0,0,0,0,0,1,1,1,0,26,26,30,,,,,,7,1.721,119,001,2019_Mar_19_1007,test_run,3.0.6,59.983130352831616,
18,TDF,TDF_18_sjud_070319.wav,,,1,rating_t_final.csv,t,final,,,,,0,0,0,0,0,1,1,1,0,27,27,17,,,,,,3,6.187,119,001,2019_Mar_19_1007,test_run,3.0.6,59.983130352831616,
32,TDF,TDF_32_hoard_070319.wav,,,1,rating_t_final.csv,t,final,,,,,0,0,0,0,0,1,1,1,0,28,28,31,,,,,,3,5.554,119,001,2019_Mar_19_1007,test_run,3.0.6,59.983130352831616,
14,TTF,TTF_14_mot_070319.wav,,,1,rating_t_final.csv,t,final,,,,,0,0,0,0,0,1,1,1,0,29,29,13,,,,,,7,1.538,119,001,2019_Mar_19_1007,test_run,3.0.6,59.983130352831616,
12,TTF,TTF_12_smet_070319.wav,,,1,rating_t_final.csv,t,final,,,,,0,0,0,0,0,1,1,1,0,30,30,11,,,,,,7,1.171,119,001,2019_Mar_19_1007,test_run,3.0.6,59.983130352831616,
6,TTF,TTF_6_voart_070319.wav,,,1,rating_t_final.csv,t,final,,,,,0,0,0,0,0,1,1,1,0,31,31,5,,,,,,7,0.804,119,001,2019_Mar_19_1007,test_run,3.0.6,59.983130352831616,
20,TDI,TDI_20_dur_150219.wav,,,2,rating_t_initial.csv,t,initial,,,,,0,1,1,1,0,0,0,1,0,0,0,19,,,,,,1,4.02,119,001,2019_Mar_19_1007,test_run,3.0.6,59.983130352831616,
19,TDI,TDI_19_dun_150219.wav,,,2,rating_t_initial.csv,t,initial,,,,,0,1,1,1,0,0,0,1,0,1,1,18,,,,,,1,8.921,119,001,2019_Mar_19_1007,test_run,3.0.6,59.983130352831616,
21,TDI,TDI_21_dugg_150219.wav,,,2,rating_t_initial.csv,t,initial,,,,,0,1,1,1,0,0,0,1,0,2,2,20,,,,,,1,3.071,119,001,2019_Mar_19_1007,test_run,3.0.6,59.983130352831616,
22,TDI,TDI_22_dy_150219.wav,,,2,rating_t_initial.csv,t,initial,,,,,0,1,1,1,0,0,0,1,0,3,3,21,,,,,,1,2.071,119,001,2019_Mar_19_1007,test_run,3.0.6,59.983130352831616,
24,TDI,TDI_24_daack_150219.wav,,,2,rating_t_initial.csv,t,initial,,,,,0,1,1,1,0,0,0,1,0,4,4,23,,,,,,1,1.237,119,001,2019_Mar_19_1007,test_run,3.0.6,59.983130352831616,
6,TTI,TTI_6_teg_150219.wav,,,2,rating_t_initial.csv,t,initial,,,,,0,1,1,1,0,0,0,1,0,5,5,5,,,,,,6,4.137,119,001,2019_Mar_19_1007,test_run,3.0.6,59.983130352831616,
5,TTI,TTI_5_tass_150219.wav,,,2,rating_t_initial.csv,t,initial,,,,,0,1,1,1,0,0,0,1,0,6,6,4,,,,,,1,1.287,119,001,2019_Mar_19_1007,test_run,3.0.6,59.983130352831616,
4,TTI,TTI_4_tam_150219.wav,,,2,rating_t_initial.csv,t,initial,,,,,0,1,1,1,0,0,0,1,0,7,7,3,,,,,,1,1.304,119,001,2019_Mar_19_1007,test_run,3.0.6,59.983130352831616,
17,TDI,TDI_17_dopp_150219.wav,,,2,rating_t_initial.csv,t,initial,,,,,0,1,1,1,0,0,0,1,0,8,8,16,,,,,,1,1.954,119,001,2019_Mar_19_1007,test_run,3.0.6,59.983130352831616,
14,TTI,TTI_14_tok_150219.wav,,,2,rating_t_initial.csv,t,initial,,,,,0,1,1,1,0,0,0,1,0,9,9,13,,,,,,7,0.82,119,001,2019_Mar_19_1007,test_run,3.0.6,59.983130352831616,
10,TTI,TTI_10_titt_150219.wav,,,2,rating_t_initial.csv,t,initial,,,,,0,1,1,1,0,0,0,1,0,10,10,9,,,,,,3,4.52,119,001,2019_Mar_19_1007,test_run,3.0.6,59.983130352831616,
26,TDI,TDI_26_doe_150219.wav,,,2,rating_t_initial.csv,t,initial,,,,,0,1,1,1,0,0,0,1,0,11,11,25,,,,,,1,0.82,119,001,2019_Mar_19_1007,test_run,3.0.6,59.983130352831616,
13,TTI,TTI_13_tog_150219.wav,,,2,rating_t_initial.csv,t,initial,,,,,0,1,1,1,0,0,0,1,0,12,12,12,,,,,,5,2.004,119,001,2019_Mar_19_1007,test_run,3.0.6,59.983130352831616,
3,TTI,TTI_3_tal_150219.wav,,,2,rating_t_initial.csv,t,initial,,,,,0,1,1,1,0,0,0,1,0,13,13,2,,,,,,7,0.97,119,001,2019_Mar_19_1007,test_run,3.0.6,59.983130352831616,
27,TDI,TDI_27_doem_edit_150219.wav,,,2,rating_t_initial.csv,t,initial,,,,,0,1,1,1,0,0,0,1,0,14,14,26,,,,,,1,0.921,119,001,2019_Mar_19_1007,test_run,3.0.6,59.983130352831616,
7,TTI,TTI_7_tenn_150219.wav,,,2,rating_t_initial.csv,t,initial,,,,,0,1,1,1,0,0,0,1,0,15,15,6,,,,,,4,1.771,119,001,2019_Mar_19_1007,test_run,3.0.6,59.983130352831616,
11,TTI,TTI_11_tipp_150219.wav,,,2,rating_t_initial.csv,t,initial,,,,,0,1,1,1,0,0,0,1,0,16,16,10,,,,,,7,1.087,119,001,2019_Mar_19_1007,test_run,3.0.6,59.983130352831616,
15,TDI,TDI_15_dom_150219.wav,,,2,rating_t_initial.csv,t,initial,,,,,0,1,1,1,0,0,0,1,0,17,17,14,,,,,,1,0.904,119,001,2019_Mar_19_1007,test_run,3.0.6,59.983130352831616,
1,TTI,TTI_1_tag_150219.wav,,,2,rating_t_initial.csv,t,initial,,,,,0,1,1,1,0,0,0,1,0,18,18,0,,,,,,5,6.969,119,001,2019_Mar_19_1007,test_run,3.0.6,59.983130352831616,
8,TTI,TTI_8_tia_150219.wav,,,2,rating_t_initial.csv,t,initial,,,,,0,1,1,1,0,0,0,1,0,19,19,7,,,,,,7,1.371,119,001,2019_Mar_19_1007,test_run,3.0.6,59.983130352831616,
12,TTI,TTI_12_toa_150219.wav,,,2,rating_t_initial.csv,t,initial,,,,,0,1,1,1,0,0,0,1,0,20,20,11,,,,,,7,0.97,119,001,2019_Mar_19_1007,test_run,3.0.6,59.983130352831616,
23,TDI,TDI_23_doa_150219.wav,,,2,rating_t_initial.csv,t,initial,,,,,0,1,1,1,0,0,0,1,0,21,21,22,,,,,,3,3.287,119,001,2019_Mar_19_1007,test_run,3.0.6,59.983130352831616,
2,TTI,TTI_2_tagg_150219.wav,,,2,rating_t_initial.csv,t,initial,,,,,0,1,1,1,0,0,0,1,0,22,22,1,,,,,,6,2.954,119,001,2019_Mar_19_1007,test_run,3.0.6,59.983130352831616,
18,TDI,TDI_18_dum_150219.wav,,,2,rating_t_initial.csv,t,initial,,,,,0,1,1,1,0,0,0,1,0,23,23,17,,,,,,1,0.77,119,001,2019_Mar_19_1007,test_run,3.0.6,59.983130352831616,
16,TDI,TDI_16_don_150219.wav,,,2,rating_t_initial.csv,t,initial,,,,,0,1,1,1,0,0,0,1,0,24,24,15,,,,,,1,3.62,119,001,2019_Mar_19_1007,test_run,3.0.6,59.983130352831616,
25,TDI,TDI_25_daar_150219.wav,,,2,rating_t_initial.csv,t,initial,,,,,0,1,1,1,0,0,0,1,0,25,25,24,,,,,,1,0.887,119,001,2019_Mar_19_1007,test_run,3.0.6,59.983130352831616,
9,TTI,TTI_9_till_150219.wav,,,2,rating_t_initial.csv,t,initial,,,,,0,1,1,1,0,0,0,1,0,26,26,8,,,,,,4,4.22,119,001,2019_Mar_19_1007,test_run,3.0.6,59.983130352831616,
12,TDI,TDI_12_doa_150219.wav,,,2,rating_d_initial.csv,d,initial,,,,,0,1,1,1,0,1,1,0,0,0,0,11,,,,,,7,1.854,119,001,2019_Mar_19_1007,test_run,3.0.6,59.983130352831616,
21,TTI,TTI_21_tugg_150219.wav,,,2,rating_d_initial.csv,d,initial,,,,,0,1,1,1,0,1,1,0,0,1,1,20,,,,,,2,6.37,119,001,2019_Mar_19_1007,test_run,3.0.6,59.983130352831616,
17,TTI,TTI_17_topp_150219.wav,,,2,rating_d_initial.csv,d,initial,,,,,0,1,1,1,0,1,1,0,0,2,2,16,,,,,,3,2.97,119,001,2019_Mar_19_1007,test_run,3.0.6,59.983130352831616,
18,TTI,TTI_18_tum_150219.wav,,,2,rating_d_initial.csv,d,initial,,,,,0,1,1,1,0,1,1,0,0,3,3,17,,,,,,1,3.254,119,001,2019_Mar_19_1007,test_run,3.0.6,59.983130352831616,
10,TDI,TDI_10_ditt_150219.wav,,,2,rating_d_initial.csv,d,initial,,,,,0,1,1,1,0,1,1,0,0,4,4,9,,,,,,7,1.088,119,001,2019_Mar_19_1007,test_run,3.0.6,59.983130352831616,
14,TDI,TDI_14_dok_150219.wav,,,2,rating_d_initial.csv,d,initial,,,,,0,1,1,1,0,1,1,0,0,5,5,13,,,,,,5,6.987,119,001,2019_Mar_19_1007,test_run,3.0.6,59.983130352831616,
24,TTI,TTI_24_taack_150219.wav,,,2,rating_d_initial.csv,d,initial,,,,,0,1,1,1,0,1,1,0,0,6,6,23,,,,,,5,3.47,119,001,2019_Mar_19_1007,test_run,3.0.6,59.983130352831616,
4,TDI,TDI_4_dam_150219.wav,,,2,rating_d_initial.csv,d,initial,,,,,0,1,1,1,0,1,1,0,0,7,7,3,,,,,,7,1.087,119,001,2019_Mar_19_1007,test_run,3.0.6,59.983130352831616,
27,TTI,TTI_27_toem_150219.wav,,,2,rating_d_initial.csv,d,initial,,,,,0,1,1,1,0,1,1,0,0,8,8,26,,,,,,2,2.921,119,001,2019_Mar_19_1007,test_run,3.0.6,59.983130352831616,
1,TDI,TDI_1_dag_150219.wav,,,2,rating_d_initial.csv,d,initial,,,,,0,1,1,1,0,1,1,0,0,9,9,0,,,,,,6,2.554,119,001,2019_Mar_19_1007,test_run,3.0.6,59.983130352831616,
25,TTI,TTI_25_taar_150219.wav,,,2,rating_d_initial.csv,d,initial,,,,,0,1,1,1,0,1,1,0,0,10,10,24,,,,,,7,0.72,119,001,2019_Mar_19_1007,test_run,3.0.6,59.983130352831616,
8,TDI,TDI_8_dia_150219.wav,,,2,rating_d_initial.csv,d,initial,,,,,0,1,1,1,0,1,1,0,0,11,11,7,,,,,,7,0.805,119,001,2019_Mar_19_1007,test_run,3.0.6,59.983130352831616,
16,TTI,TTI_16_ton_150219.wav,,,2,rating_d_initial.csv,d,initial,,,,,0,1,1,1,0,1,1,0,0,12,12,15,,,,,,1,6.335,119,001,2019_Mar_19_1007,test_run,3.0.6,59.983130352831616,
7,TDI,TDI_7_den_150219.wav,,,2,rating_d_initial.csv,d,initial,,,,,0,1,1,1,0,1,1,0,0,13,13,6,,,,,,7,0.804,119,001,2019_Mar_19_1007,test_run,3.0.6,59.983130352831616,
13,TDI,TDI_13_dog_150219.wav,,,2,rating_d_initial.csv,d,initial,,,,,0,1,1,1,0,1,1,0,0,14,14,12,,,,,,6,4.137,119,001,2019_Mar_19_1007,test_run,3.0.6,59.983130352831616,
2,TDI,TDI_2_dagg_150219.wav,,,2,rating_d_initial.csv,d,initial,,,,,0,1,1,1,0,1,1,0,0,15,15,1,,,,,,5,2.103,119,001,2019_Mar_19_1007,test_run,3.0.6,59.983130352831616,
6,TDI,TDI_6_deg_150219.wav,,,2,rating_d_initial.csv,d,initial,,,,,0,1,1,1,0,1,1,0,0,16,16,5,,,,,,6,2.453,119,001,2019_Mar_19_1007,test_run,3.0.6,59.983130352831616,
22,TTI,TTI_22_ty_150219.wav,,,2,rating_d_initial.csv,d,initial,,,,,0,1,1,1,0,1,1,0,0,17,17,21,,,,,,6,0.837,119,001,2019_Mar_19_1007,test_run,3.0.6,59.983130352831616,
20,TTI,TTI_20_tur_150219.wav,,,2,rating_d_initial.csv,d,initial,,,,,0,1,1,1,0,1,1,0,0,18,18,19,,,,,,1,0.638,119,001,2019_Mar_19_1007,test_run,3.0.6,59.983130352831616,
11,TDI,TDI_11_dipp_150219.wav,,,2,rating_d_initial.csv,d,initial,,,,,0,1,1,1,0,1,1,0,0,19,19,10,,,,,,7,0.954,119,001,2019_Mar_19_1007,test_run,3.0.6,59.983130352831616,
23,TTI,TTI_23_toa_150219.wav,,,2,rating_d_initial.csv,d,initial,,,,,0,1,1,1,0,1,1,0,0,20,20,22,,,,,,3,3.787,119,001,2019_Mar_19_1007,test_run,3.0.6,59.983130352831616,
15,TTI,TTI_15_tom_150219.wav,,,2,rating_d_initial.csv,d,initial,,,,,0,1,1,1,0,1,1,0,0,21,21,14,,,,,,1,0.67,119,001,2019_Mar_19_1007,test_run,3.0.6,59.983130352831616,
26,TTI,TTI_26_toe_150219.wav,,,2,rating_d_initial.csv,d,initial,,,,,0,1,1,1,0,1,1,0,0,22,22,25,,,,,,7,2.637,119,001,2019_Mar_19_1007,test_run,3.0.6,59.983130352831616,
5,TDI,TDI_5_dass_150219.wav,,,2,rating_d_initial.csv,d,initial,,,,,0,1,1,1,0,1,1,0,0,23,23,4,,,,,,7,0.804,119,001,2019_Mar_19_1007,test_run,3.0.6,59.983130352831616,
19,TTI,TTI_19_tun_150219.wav,,,2,rating_d_initial.csv,d,initial,,,,,0,1,1,1,0,1,1,0,0,24,24,18,,,,,,6,3.287,119,001,2019_Mar_19_1007,test_run,3.0.6,59.983130352831616,
9,TDI,TDI_9_dill_150219.wav,,,2,rating_d_initial.csv,d,initial,,,,,0,1,1,1,0,1,1,0,0,25,25,8,,,,,,7,0.638,119,001,2019_Mar_19_1007,test_run,3.0.6,59.983130352831616,
3,TDI,TDI_3_dal_150219.wav,,,2,rating_d_initial.csv,d,initial,,,,,0,1,1,1,0,1,1,0,0,26,26,2,,,,,,5,17.636,119,001,2019_Mar_19_1007,test_run,3.0.6,59.983130352831616,
