item,item_cond,sound,corr_ans,group,block_id,listname,rating_for,position,trials.thisRepN,trials.thisTrialN,trials.thisN,trials.thisIndex,run_block_type.thisRepN,run_block_type.thisTrialN,run_block_type.thisN,run_block_type.thisIndex,routine.thisRepN,routine.thisTrialN,routine.thisN,routine.thisIndex,rating_trials.thisRepN,rating_trials.thisTrialN,rating_trials.thisN,rating_trials.thisIndex,key_resp_1.keys,key_resp_1.rt,key_resp_2.keys,key_resp_2.corr,key_resp_2.rt,rating_1.response,rating_1.rt,participant,session,date,expName,psychopyVersion,frameRate,
,,,,,,,,,,,,,,,,,,,,,,,,,space,13.036865710979328,,,,,,120,001,2019_Mar_19_1042,test_run,3.0.6,59.99808005380362,
63,EFW,EFW_33_elva_070319.wav,j,c ,,,,,0,0,0,62,,,,,,,,,,,,,,,j,1,1.1863924970093649,,,120,001,2019_Mar_19_1042,test_run,3.0.6,59.99808005380362,
146,ENW,ENW_56_lysskarna_150219.wav,n,c ,,,,,0,1,1,145,,,,,,,,,,,,,,,n,1,0.5854870229959488,,,120,001,2019_Mar_19_1042,test_run,3.0.6,59.99808005380362,
177,ENW,ENW_87_kloavare_150219.wav,n,c ,,,,,0,2,2,176,,,,,,,,,,,,,,,n,1,0.6855172530049458,,,120,001,2019_Mar_19_1042,test_run,3.0.6,59.99808005380362,
148,ENW,ENW_58_malvossa_150219.wav,n,c ,,,,,0,3,3,147,,,,,,,,,,,,,,,n,1,1.0188737120188307,,,120,001,2019_Mar_19_1042,test_run,3.0.6,59.99808005380362,
62,EFW,EFW_32_fyller_070319.wav,j,c ,,,,,0,4,4,61,,,,,,,,,,,,,,,j,1,0.8025649659975898,,,120,001,2019_Mar_19_1042,test_run,3.0.6,59.99808005380362,
134,ENW,ENW_44_inlivna_150219.wav,n,c ,,,,,0,5,5,133,,,,,,,,,,,,,,,n,1,1.8525633600074798,,,120,001,2019_Mar_19_1042,test_run,3.0.6,59.99808005380362,
37,EFW,EFW_7_sociala_070319.wav,j,c ,,,,,0,6,6,36,,,,,,,,,,,,,,,j,1,0.568923626007745,,,120,001,2019_Mar_19_1042,test_run,3.0.6,59.99808005380362,
119,ENW,ENW_29_uppskira_150219.wav,n,c ,,,,,0,7,7,118,,,,,,,,,,,,,,,j,0,1.0523684859799687,,,120,001,2019_Mar_19_1042,test_run,3.0.6,59.99808005380362,
7,ECW,ECW_7_marin_070319.wav,j,c ,,,,,0,8,8,6,,,,,,,,,,,,,,,j,1,0.4855466499866452,,,120,001,2019_Mar_19_1042,test_run,3.0.6,59.99808005380362,
93,ENW,ENW_3_vissorens_150219.wav,n,c ,,,,,0,9,9,92,,,,,,,,,,,,,,,n,1,0.8188673200202174,,,120,001,2019_Mar_19_1042,test_run,3.0.6,59.99808005380362,
16,ECW,ECW_16_skinskalle_070319.wav,j,c ,,,,,0,10,10,15,,,,,,,,,,,,,,,j,1,0.5860267719835974,,,120,001,2019_Mar_19_1042,test_run,3.0.6,59.99808005380362,
78,EFW,EFW_48_varifroan_070319.wav,j,c ,,,,,0,11,11,77,,,,,,,,,,,,,,,j,1,0.3171614090097137,,,120,001,2019_Mar_19_1042,test_run,3.0.6,59.99808005380362,
89,EFW,EFW_59_filosofin_070319.wav,j,c ,,,,,0,12,12,88,,,,,,,,,,,,,,,j,1,0.350476374005666,,,120,001,2019_Mar_19_1042,test_run,3.0.6,59.99808005380362,
72,EFW,EFW_42_naavaron_070319.wav,j,c ,,,,,0,13,13,71,,,,,,,,,,,,,,,j,1,0.369351388013456,,,120,001,2019_Mar_19_1042,test_run,3.0.6,59.99808005380362,
170,ENW,ENW_80_tjarfera_150219.wav,n,c ,,,,,0,14,14,169,,,,,,,,,,,,,,,n,1,0.36961111100390553,,,120,001,2019_Mar_19_1042,test_run,3.0.6,59.99808005380362,
126,ENW,ENW_36_skymlosa_150219.wav,n,c ,,,,,0,15,15,125,,,,,,,,,,,,,,,n,1,1.0192312370054424,,,120,001,2019_Mar_19_1042,test_run,3.0.6,59.99808005380362,
163,ENW,ENW_73_vimmankalla_150219.wav,n,c ,,,,,0,16,16,162,,,,,,,,,,,,,,,n,1,0.9361591710185166,,,120,001,2019_Mar_19_1042,test_run,3.0.6,59.99808005380362,
67,EFW,EFW_37_foervisso_070319.wav,j,c ,,,,,0,17,17,66,,,,,,,,,,,,,,,j,1,0.3687422680086456,,,120,001,2019_Mar_19_1042,test_run,3.0.6,59.99808005380362,
46,EFW,EFW_16_lyssna_070319.wav,j,c ,,,,,0,18,18,45,,,,,,,,,,,,,,,j,1,1.420043641992379,,,120,001,2019_Mar_19_1042,test_run,3.0.6,59.99808005380362,
139,ENW,ENW_49_hälskrena_150219.wav,n,c ,,,,,0,19,19,138,,,,,,,,,,,,,,,n,1,0.9693427940073889,,,120,001,2019_Mar_19_1042,test_run,3.0.6,59.99808005380362,
68,EFW,EFW_38_foerefoell_070319.wav,j,c ,,,,,0,20,20,67,,,,,,,,,,,,,,,j,1,0.3364230250008404,,,120,001,2019_Mar_19_1042,test_run,3.0.6,59.99808005380362,
52,EFW,EFW_22_normala_070319.wav,j,c ,,,,,0,21,21,51,,,,,,,,,,,,,,,j,1,0.3026477050152607,,,120,001,2019_Mar_19_1042,test_run,3.0.6,59.99808005380362,
70,EFW,EFW_40_miljoner_070319.wav,j,c ,,,,,0,22,22,69,,,,,,,,,,,,,,,j,1,0.26933023298624903,,,120,001,2019_Mar_19_1042,test_run,3.0.6,59.99808005380362,
135,ENW,ENW_45_fammoarens_150219.wav,n,c ,,,,,0,23,23,134,,,,,,,,,,,,,,,n,1,0.4857165160065051,,,120,001,2019_Mar_19_1042,test_run,3.0.6,59.99808005380362,
17,ECW,ECW_17_majonnaas_070319.wav,j,c ,,,,,0,24,24,16,,,,,,,,,,,,,,,j,1,0.8358856179984286,,,120,001,2019_Mar_19_1042,test_run,3.0.6,59.99808005380362,
171,ENW,ENW_81_persifera_150219.wav,n,c ,,,,,0,25,25,170,,,,,,,,,,,,,,,n,1,0.31884402901050635,,,120,001,2019_Mar_19_1042,test_run,3.0.6,59.99808005380362,
118,ENW,ENW_28_läkermask_150219.wav,n,c ,,,,,0,26,26,117,,,,,,,,,,,,,,,j,0,0.6362165510072373,,,120,001,2019_Mar_19_1042,test_run,3.0.6,59.99808005380362,
2,ECW,ECW_2_hinna_070319.wav,j,c ,,,,,0,27,27,1,,,,,,,,,,,,,,,j,1,0.785596155008534,,,120,001,2019_Mar_19_1042,test_run,3.0.6,59.99808005380362,
155,ENW,ENW_65_hamfylla_150219.wav,n,c ,,,,,0,28,28,154,,,,,,,,,,,,,,,n,1,3.5352538250153884,,,120,001,2019_Mar_19_1042,test_run,3.0.6,59.99808005380362,
164,ENW,ENW_74_malsera_150219.wav,n,c ,,,,,0,29,29,163,,,,,,,,,,,,,,,n,1,1.019062617997406,,,120,001,2019_Mar_19_1042,test_run,3.0.6,59.99808005380362,
66,EFW,EFW_36_haarifroan_070319.wav,j,c ,,,,,0,30,30,65,,,,,,,,,,,,,,,j,1,0.702298520016484,,,120,001,2019_Mar_19_1042,test_run,3.0.6,59.99808005380362,
94,ENW,ENW_4_kyllfaren_150219.wav,n,c ,,,,,0,31,31,93,,,,,,,,,,,,,,,n,1,0.40256281397887506,,,120,001,2019_Mar_19_1042,test_run,3.0.6,59.99808005380362,
74,EFW,EFW_44_ljusa_070319.wav,j,c ,,,,,0,32,32,73,,,,,,,,,,,,,,,j,1,0.48545166398980655,,,120,001,2019_Mar_19_1042,test_run,3.0.6,59.99808005380362,
144,ENW,ENW_54_lomering_150219.wav,n,c ,,,,,0,33,33,143,,,,,,,,,,,,,,,n,1,0.46917489799670875,,,120,001,2019_Mar_19_1042,test_run,3.0.6,59.99808005380362,
61,EFW,EFW_31_jaamfoera_070319.wav,j,c ,,,,,0,34,34,60,,,,,,,,,,,,,,,j,1,0.3022011360153556,,,120,001,2019_Mar_19_1042,test_run,3.0.6,59.99808005380362,
128,ENW,ENW_38_roakanier_150219.wav,n,c ,,,,,0,35,35,127,,,,,,,,,,,,,,,n,1,0.5854463329887949,,,120,001,2019_Mar_19_1042,test_run,3.0.6,59.99808005380362,
127,ENW,ENW_37_spallrivet_150219.wav,n,c ,,,,,0,36,36,126,,,,,,,,,,,,,,,n,1,0.6195856579870451,,,120,001,2019_Mar_19_1042,test_run,3.0.6,59.99808005380362,
71,EFW,EFW_41_infinna_070319.wav,j,c ,,,,,0,37,37,70,,,,,,,,,,,,,,,j,1,0.30028826399939135,,,120,001,2019_Mar_19_1042,test_run,3.0.6,59.99808005380362,
30,ECW,ECW_30_recensioner_070319.wav,j,c ,,,,,0,38,38,29,,,,,,,,,,,,,,,j,1,0.23561909000272863,,,120,001,2019_Mar_19_1042,test_run,3.0.6,59.99808005380362,
38,EFW,EFW_8_samman_070319.wav,j,c ,,,,,0,39,39,37,,,,,,,,,,,,,,,j,1,0.4697479260212276,,,120,001,2019_Mar_19_1042,test_run,3.0.6,59.99808005380362,
130,ENW,ENW_40_knipackar_150219.wav,n,c ,,,,,0,40,40,129,,,,,,,,,,,,,,,n,1,0.8839295659854542,,,120,001,2019_Mar_19_1042,test_run,3.0.6,59.99808005380362,
13,ECW,ECW_13_kanonform_070319.wav,j,c ,,,,,0,41,41,12,,,,,,,,,,,,,,,j,1,0.7689592049864586,,,120,001,2019_Mar_19_1042,test_run,3.0.6,59.99808005380362,
178,ENW,ENW_88_marsifen_150219.wav,n,c ,,,,,0,42,42,177,,,,,,,,,,,,,,,n,1,0.7858423959987704,,,120,001,2019_Mar_19_1042,test_run,3.0.6,59.99808005380362,
95,ENW,ENW_5_spoamisk_150219.wav,n,c ,,,,,0,43,43,94,,,,,,,,,,,,,,,n,1,0.3193623499828391,,,120,001,2019_Mar_19_1042,test_run,3.0.6,59.99808005380362,
107,ENW,ENW_17_kopynnor_150219.wav,n,c ,,,,,0,44,44,106,,,,,,,,,,,,,,,n,1,0.9360812389932107,,,120,001,2019_Mar_19_1042,test_run,3.0.6,59.99808005380362,
129,ENW,ENW_39_ljusonar_150219.wav,n,c ,,,,,0,45,45,128,,,,,,,,,,,,,,,n,1,1.068925047002267,,,120,001,2019_Mar_19_1042,test_run,3.0.6,59.99808005380362,
9,ECW,ECW_9_spinna_070319.wav,j,c ,,,,,0,46,46,8,,,,,,,,,,,,,,,j,1,0.2860747209924739,,,120,001,2019_Mar_19_1042,test_run,3.0.6,59.99808005380362,
102,ENW,ENW_12_snälmola_150219.wav,n,c ,,,,,0,47,47,101,,,,,,,,,,,,,,,n,1,0.7360220639966428,,,120,001,2019_Mar_19_1042,test_run,3.0.6,59.99808005380362,
175,ENW,ENW_85_forlinna_150219.wav,n,c ,,,,,0,48,48,174,,,,,,,,,,,,,,,n,1,0.3024378560076002,,,120,001,2019_Mar_19_1042,test_run,3.0.6,59.99808005380362,
48,EFW,EFW_18_nummer_070319.wav,j,c ,,,,,0,49,49,47,,,,,,,,,,,,,,,j,1,0.36965543901897036,,,120,001,2019_Mar_19_1042,test_run,3.0.6,59.99808005380362,
84,EFW,EFW_54_romaner_070319.wav,j,c ,,,,,0,50,50,83,,,,,,,,,,,,,,,j,1,0.25246355700073764,,,120,001,2019_Mar_19_1042,test_run,3.0.6,59.99808005380362,
145,ENW,ENW_55_invaskin_150219.wav,n,c ,,,,,0,51,51,144,,,,,,,,,,,,,,,n,1,0.3197776309971232,,,120,001,2019_Mar_19_1042,test_run,3.0.6,59.99808005380362,
65,EFW,EFW_35_affaarer_070319.wav,j,c ,,,,,0,52,52,64,,,,,,,,,,,,,,,j,1,0.28591278300154954,,,120,001,2019_Mar_19_1042,test_run,3.0.6,59.99808005380362,
156,ENW,ENW_66_voarsmenar_150219.wav,n,c ,,,,,0,53,53,155,,,,,,,,,,,,,,,n,1,0.2530326440173667,,,120,001,2019_Mar_19_1042,test_run,3.0.6,59.99808005380362,
109,ENW,ENW_19_morloren_150219.wav,n,c ,,,,,0,54,54,108,,,,,,,,,,,,,,,n,1,0.4189476050087251,,,120,001,2019_Mar_19_1042,test_run,3.0.6,59.99808005380362,
56,EFW,EFW_26_armarna_070319.wav,j,c ,,,,,0,55,55,55,,,,,,,,,,,,,,,j,1,1.236310883978149,,,120,001,2019_Mar_19_1042,test_run,3.0.6,59.99808005380362,
53,EFW,EFW_23_aamne_070319.wav,j,c ,,,,,0,56,56,52,,,,,,,,,,,,,,,j,1,0.2857706730137579,,,120,001,2019_Mar_19_1042,test_run,3.0.6,59.99808005380362,
58,EFW,EFW_28_olja_070319.wav,j,c ,,,,,0,57,57,57,,,,,,,,,,,,,,,j,1,0.33567957201739773,,,120,001,2019_Mar_19_1042,test_run,3.0.6,59.99808005380362,
73,EFW,EFW_43_halvoar_070319.wav,j,c ,,,,,0,58,58,72,,,,,,,,,,,,,,,j,1,0.35044701799051836,,,120,001,2019_Mar_19_1042,test_run,3.0.6,59.99808005380362,
115,ENW,ENW_25_affierar_150219.wav,n,c ,,,,,0,59,59,114,,,,,,,,,,,,,,,n,1,0.402482842997415,,,120,001,2019_Mar_19_1042,test_run,3.0.6,59.99808005380362,
43,EFW,EFW_13_elever_070319.wav,j,c ,,,,,0,60,60,42,,,,,,,,,,,,,,,j,1,0.369056791998446,,,120,001,2019_Mar_19_1042,test_run,3.0.6,59.99808005380362,
45,EFW,EFW_15_oeverens_070319.wav,j,c ,,,,,0,61,61,44,,,,,,,,,,,,,,,j,1,0.40306431698263623,,,120,001,2019_Mar_19_1042,test_run,3.0.6,59.99808005380362,
172,ENW,ENW_82_värskappa_150219.wav,n,c ,,,,,0,62,62,171,,,,,,,,,,,,,,,n,1,0.652119564008899,,,120,001,2019_Mar_19_1042,test_run,3.0.6,59.99808005380362,
27,ECW,ECW_27_panorama_070319.wav,j,c ,,,,,0,63,63,26,,,,,,,,,,,,,,,j,1,0.3025003919901792,,,120,001,2019_Mar_19_1042,test_run,3.0.6,59.99808005380362,
55,EFW,EFW_25_informera_070319.wav,j,c ,,,,,0,64,64,54,,,,,,,,,,,,,,,j,1,0.2861892459914088,,,120,001,2019_Mar_19_1042,test_run,3.0.6,59.99808005380362,
5,ECW,ECW_5_kamma_070319.wav,j,c ,,,,,0,65,65,4,,,,,,,,,,,,,,,n,0,0.4697646819986403,,,120,001,2019_Mar_19_1042,test_run,3.0.6,59.99808005380362,
167,ENW,ENW_77_somfera_150219.wav,n,c ,,,,,0,66,66,166,,,,,,,,,,,,,,,n,1,0.7859344189928379,,,120,001,2019_Mar_19_1042,test_run,3.0.6,59.99808005380362,
6,ECW,ECW_6_sila_070319.wav,j,c ,,,,,0,67,67,5,,,,,,,,,,,,,,,n,0,0.8337879700120538,,,120,001,2019_Mar_19_1042,test_run,3.0.6,59.99808005380362,
90,EFW,EFW_60_insulin_070319.wav,j,c ,,,,,0,68,68,89,,,,,,,,,,,,,,,j,1,0.3528989409969654,,,120,001,2019_Mar_19_1042,test_run,3.0.6,59.99808005380362,
8,ECW,ECW_8_fryshus_070319.wav,j,c ,,,,,0,69,69,7,,,,,,,,,,,,,,,n,0,0.7695925619918853,,,120,001,2019_Mar_19_1042,test_run,3.0.6,59.99808005380362,
44,EFW,EFW_14_foersoeken_070319.wav,j,c ,,,,,0,70,70,43,,,,,,,,,,,,,,,n,0,0.5520495229866356,,,120,001,2019_Mar_19_1042,test_run,3.0.6,59.99808005380362,
69,EFW,EFW_39_foersvara_070319.wav,j,c ,,,,,0,71,71,68,,,,,,,,,,,,,,,j,1,0.36946815499686636,,,120,001,2019_Mar_19_1042,test_run,3.0.6,59.99808005380362,
110,ENW,ENW_20_invonen_150219.wav,n,c ,,,,,0,72,72,109,,,,,,,,,,,,,,,n,1,0.8835893870273139,,,120,001,2019_Mar_19_1042,test_run,3.0.6,59.99808005380362,
176,ENW,ENW_86_heloppsin_150219.wav,n,c ,,,,,0,73,73,175,,,,,,,,,,,,,,,n,1,0.40214925300097093,,,120,001,2019_Mar_19_1042,test_run,3.0.6,59.99808005380362,
42,EFW,EFW_12_foeremoal_070319.wav,j,c ,,,,,0,74,74,41,,,,,,,,,,,,,,,j,1,0.88648243501666,,,120,001,2019_Mar_19_1042,test_run,3.0.6,59.99808005380362,
133,ENW,ENW_43_axalän_150219.wav,n,c ,,,,,0,75,75,132,,,,,,,,,,,,,,,n,1,0.6190329850069247,,,120,001,2019_Mar_19_1042,test_run,3.0.6,59.99808005380362,
158,ENW,ENW_68_presionar_150219.wav,n,c ,,,,,0,76,76,157,,,,,,,,,,,,,,,n,1,0.26899641699856147,,,120,001,2019_Mar_19_1042,test_run,3.0.6,59.99808005380362,
120,ENW,ENW_30_sojera_150219.wav,n,c ,,,,,0,77,77,119,,,,,,,,,,,,,,,n,1,0.2859449259995017,,,120,001,2019_Mar_19_1042,test_run,3.0.6,59.99808005380362,
122,ENW,ENW_32_fonering_150219.wav,n,c ,,,,,0,78,78,121,,,,,,,,,,,,,,,n,1,0.2689956060203258,,,120,001,2019_Mar_19_1042,test_run,3.0.6,59.99808005380362,
79,EFW,EFW_49_vaasen_070319.wav,j,c ,,,,,0,79,79,78,,,,,,,,,,,,,,,j,1,0.3195633760187775,,,120,001,2019_Mar_19_1042,test_run,3.0.6,59.99808005380362,
159,ENW,ENW_69_mjohusa_150219.wav,n,c ,,,,,0,80,80,158,,,,,,,,,,,,,,,n,1,0.485962319013197,,,120,001,2019_Mar_19_1042,test_run,3.0.6,59.99808005380362,
35,EFW,EFW_5_samhaalle_070319.wav,j,c ,,,,,0,81,81,34,,,,,,,,,,,,,,,j,1,0.5020521259866655,,,120,001,2019_Mar_19_1042,test_run,3.0.6,59.99808005380362,
180,ENW,ENW_90_skrivinar_150219.wav,n,c ,,,,,0,82,82,179,,,,,,,,,,,,,,,n,1,0.48638386800303124,,,120,001,2019_Mar_19_1042,test_run,3.0.6,59.99808005380362,
132,ENW,ENW_42_hamsforing_150219.wav,n,c ,,,,,0,83,83,131,,,,,,,,,,,,,,,j,0,0.5502347270085011,,,120,001,2019_Mar_19_1042,test_run,3.0.6,59.99808005380362,
47,EFW,EFW_17_januari_070319.wav,j,c ,,,,,0,84,84,46,,,,,,,,,,,,,,,j,1,0.25235957102268003,,,120,001,2019_Mar_19_1042,test_run,3.0.6,59.99808005380362,
116,ENW,ENW_26_anufera_150219.wav,n,c ,,,,,0,85,85,115,,,,,,,,,,,,,,,n,1,0.269104539998807,,,120,001,2019_Mar_19_1042,test_run,3.0.6,59.99808005380362,
29,ECW,ECW_29_mejerier_070319.wav,j,c ,,,,,0,86,86,28,,,,,,,,,,,,,,,j,1,0.2856210470199585,,,120,001,2019_Mar_19_1042,test_run,3.0.6,59.99808005380362,
98,ENW,ENW_8_haväras_150219.wav,n,c ,,,,,0,87,87,97,,,,,,,,,,,,,,,n,1,0.5527916120190639,,,120,001,2019_Mar_19_1042,test_run,3.0.6,59.99808005380362,
114,ENW,ENW_24_samjoner_150219.wav,n,c ,,,,,0,88,88,113,,,,,,,,,,,,,,,n,1,0.369174794992432,,,120,001,2019_Mar_19_1042,test_run,3.0.6,59.99808005380362,
12,ECW,ECW_12_moehippa_070319.wav,j,c ,,,,,0,89,89,11,,,,,,,,,,,,,,,j,1,0.3524397799919825,,,120,001,2019_Mar_19_1042,test_run,3.0.6,59.99808005380362,
87,EFW,EFW_57_loenerna_070319.wav,j,c ,,,,,0,90,90,86,,,,,,,,,,,,,,,j,1,0.3004775950103067,,,120,001,2019_Mar_19_1042,test_run,3.0.6,59.99808005380362,
4,ECW,ECW_4_skraalla_070319.wav,j,c ,,,,,0,91,91,3,,,,,,,,,,,,,,,n,0,0.352468904980924,,,120,001,2019_Mar_19_1042,test_run,3.0.6,59.99808005380362,
121,ENW,ENW_31_romation_150219.wav,n,c ,,,,,0,92,92,120,,,,,,,,,,,,,,,n,1,0.35245051499805413,,,120,001,2019_Mar_19_1042,test_run,3.0.6,59.99808005380362,
28,ECW,ECW_28_maskinerna_070319.wav,j,c ,,,,,0,93,93,27,,,,,,,,,,,,,,,j,1,0.40239775998634286,,,120,001,2019_Mar_19_1042,test_run,3.0.6,59.99808005380362,
22,ECW,ECW_22_anonyma_070319.wav,j,c ,,,,,0,94,94,21,,,,,,,,,,,,,,,j,1,0.25241074201767333,,,120,001,2019_Mar_19_1042,test_run,3.0.6,59.99808005380362,
154,ENW,ENW_64_havskvare_150219.wav,n,c ,,,,,0,95,95,153,,,,,,,,,,,,,,,n,1,0.35261968499980867,,,120,001,2019_Mar_19_1042,test_run,3.0.6,59.99808005380362,
174,ENW,ENW_84_hurmarna_150219.wav,n,c ,,,,,0,96,96,173,,,,,,,,,,,,,,,n,1,0.48566297299112193,,,120,001,2019_Mar_19_1042,test_run,3.0.6,59.99808005380362,
153,ENW,ENW_63_femyrisk_150219.wav,n,c ,,,,,0,97,97,152,,,,,,,,,,,,,,,n,1,0.2523219870054163,,,120,001,2019_Mar_19_1042,test_run,3.0.6,59.99808005380362,
1,ECW,ECW_1_anka_070319.wav,j,c ,,,,,0,98,98,0,,,,,,,,,,,,,,,j,1,0.3693169510224834,,,120,001,2019_Mar_19_1042,test_run,3.0.6,59.99808005380362,
39,EFW,EFW_9_infektion_070319.wav,j,c ,,,,,0,99,99,38,,,,,,,,,,,,,,,j,1,0.3022338910086546,,,120,001,2019_Mar_19_1042,test_run,3.0.6,59.99808005380362,
166,ENW,ENW_76_omfläskor_150219.wav,n,c ,,,,,0,100,100,165,,,,,,,,,,,,,,,n,1,0.3335923879931215,,,120,001,2019_Mar_19_1042,test_run,3.0.6,59.99808005380362,
111,ENW,ENW_21_tjulning_150219.wav,n,c ,,,,,0,101,101,110,,,,,,,,,,,,,,,n,1,1.3019856269820593,,,120,001,2019_Mar_19_1042,test_run,3.0.6,59.99808005380362,
150,ENW,ENW_60_lackpenar_150219.wav,n,c ,,,,,0,102,102,149,,,,,,,,,,,,,,,n,1,0.8855490819842089,,,120,001,2019_Mar_19_1042,test_run,3.0.6,59.99808005380362,
88,EFW,EFW_58_examen_070319.wav,j,c ,,,,,0,103,103,87,,,,,,,,,,,,,,,j,1,0.35234590197796933,,,120,001,2019_Mar_19_1042,test_run,3.0.6,59.99808005380362,
97,ENW,ENW_7_flasera_150219.wav,n,c ,,,,,0,104,104,96,,,,,,,,,,,,,,,n,1,0.2687997779867146,,,120,001,2019_Mar_19_1042,test_run,3.0.6,59.99808005380362,
160,ENW,ENW_70_roklarner_150219.wav,n,c ,,,,,0,105,105,159,,,,,,,,,,,,,,,n,1,0.25270975701278076,,,120,001,2019_Mar_19_1042,test_run,3.0.6,59.99808005380362,
49,EFW,EFW_19_roerelse_070319.wav,j,c ,,,,,0,106,106,48,,,,,,,,,,,,,,,j,1,0.2691302270104643,,,120,001,2019_Mar_19_1042,test_run,3.0.6,59.99808005380362,
149,ENW,ENW_59_kyrkmänning_150219.wav,n,c ,,,,,0,107,107,148,,,,,,,,,,,,,,,n,1,1.3021399610152002,,,120,001,2019_Mar_19_1042,test_run,3.0.6,59.99808005380362,
82,EFW,EFW_52_framhoalla_070319.wav,j,c ,,,,,0,108,108,81,,,,,,,,,,,,,,,j,1,0.31949438800802454,,,120,001,2019_Mar_19_1042,test_run,3.0.6,59.99808005380362,
99,ENW,ENW_9_samlemor_150219.wav,n,c ,,,,,0,109,109,98,,,,,,,,,,,,,,,n,1,0.35289547700085677,,,120,001,2019_Mar_19_1042,test_run,3.0.6,59.99808005380362,
32,EFW,EFW_2_snarare_070319.wav,j,c ,,,,,0,110,110,31,,,,,,,,,,,,,,,j,1,0.31931784900370985,,,120,001,2019_Mar_19_1042,test_run,3.0.6,59.99808005380362,
36,EFW,EFW_6_massa_070319.wav,j,c ,,,,,0,111,111,35,,,,,,,,,,,,,,,j,1,0.2857304239878431,,,120,001,2019_Mar_19_1042,test_run,3.0.6,59.99808005380362,
103,ENW,ENW_13_forvaron_150219.wav,n,c ,,,,,0,112,112,102,,,,,,,,,,,,,,,n,1,0.4362391050090082,,,120,001,2019_Mar_19_1042,test_run,3.0.6,59.99808005380362,
60,EFW,EFW_30_officiella_070319.wav,j,c ,,,,,0,113,113,59,,,,,,,,,,,,,,,j,1,0.303041323000798,,,120,001,2019_Mar_19_1042,test_run,3.0.6,59.99808005380362,
64,EFW,EFW_34_sommar_070319.wav,j,c ,,,,,0,114,114,63,,,,,,,,,,,,,,,j,1,0.3172686170146335,,,120,001,2019_Mar_19_1042,test_run,3.0.6,59.99808005380362,
104,ENW,ENW_14_kärmenor_150219.wav,n,c ,,,,,0,115,115,103,,,,,,,,,,,,,,,n,1,0.36939261900261045,,,120,001,2019_Mar_19_1042,test_run,3.0.6,59.99808005380362,
162,ENW,ENW_72_urskecken_150219.wav,n,c ,,,,,0,116,116,161,,,,,,,,,,,,,,,n,1,0.2521967579959892,,,120,001,2019_Mar_19_1042,test_run,3.0.6,59.99808005380362,
23,ECW,ECW_23_maximal_070319.wav,j,c ,,,,,0,117,117,22,,,,,,,,,,,,,,,j,1,0.3193610589951277,,,120,001,2019_Mar_19_1042,test_run,3.0.6,59.99808005380362,
105,ENW,ENW_15_forfeckla_150219.wav,n,c ,,,,,0,118,118,104,,,,,,,,,,,,,,,n,1,0.23632579200784676,,,120,001,2019_Mar_19_1042,test_run,3.0.6,59.99808005380362,
136,ENW,ENW_46_pommera_150219.wav,n,c ,,,,,0,119,119,135,,,,,,,,,,,,,,,n,1,0.21936689200811088,,,120,001,2019_Mar_19_1042,test_run,3.0.6,59.99808005380362,
101,ENW,ENW_11_fränna_150219.wav,n,c ,,,,,0,120,120,100,,,,,,,,,,,,,,,n,1,0.3359615749795921,,,120,001,2019_Mar_19_1042,test_run,3.0.6,59.99808005380362,
15,ECW,ECW_15_tjuvarna_070319.wav,j,c ,,,,,0,121,121,14,,,,,,,,,,,,,,,j,1,0.5693955259921495,,,120,001,2019_Mar_19_1042,test_run,3.0.6,59.99808005380362,
57,EFW,EFW_27_analysera_070319.wav,j,c ,,,,,0,122,122,56,,,,,,,,,,,,,,,j,1,0.23605611198581755,,,120,001,2019_Mar_19_1042,test_run,3.0.6,59.99808005380362,
59,EFW,EFW_29_formen_070319.wav,j,c ,,,,,0,123,123,58,,,,,,,,,,,,,,,j,1,0.2838639779947698,,,120,001,2019_Mar_19_1042,test_run,3.0.6,59.99808005380362,
33,EFW,EFW_3_familjen_070319.wav,j,c ,,,,,0,124,124,32,,,,,,,,,,,,,,,j,1,0.2523739759926684,,,120,001,2019_Mar_19_1042,test_run,3.0.6,59.99808005380362,
161,ENW,ENW_71_forskäckla_150219.wav,n,c ,,,,,0,125,125,160,,,,,,,,,,,,,,,n,1,0.5358044900058303,,,120,001,2019_Mar_19_1042,test_run,3.0.6,59.99808005380362,
131,ENW,ENW_41_vessmaren_150219.wav,n,c ,,,,,0,126,126,130,,,,,,,,,,,,,,,n,1,0.2529648559866473,,,120,001,2019_Mar_19_1042,test_run,3.0.6,59.99808005380362,
81,EFW,EFW_51_seminarier_070319.wav,j,c ,,,,,0,127,127,80,,,,,,,,,,,,,,,j,1,0.3524222980195191,,,120,001,2019_Mar_19_1042,test_run,3.0.6,59.99808005380362,
169,ENW,ENW_79_lyxmare_150219.wav,n,c ,,,,,0,128,128,168,,,,,,,,,,,,,,,n,1,0.3506015189923346,,,120,001,2019_Mar_19_1042,test_run,3.0.6,59.99808005380362,
14,ECW,ECW_14_excellens_070319.wav,j,c ,,,,,0,129,129,13,,,,,,,,,,,,,,,j,1,0.4195071949798148,,,120,001,2019_Mar_19_1042,test_run,3.0.6,59.99808005380362,
143,ENW,ENW_53_svarmvisso_150219.wav,n,c ,,,,,0,130,130,142,,,,,,,,,,,,,,,n,1,0.36870142800034955,,,120,001,2019_Mar_19_1042,test_run,3.0.6,59.99808005380362,
113,ENW,ENW_23_allsänning_150219.wav,n,c ,,,,,0,131,131,112,,,,,,,,,,,,,,,n,1,0.31916589100728743,,,120,001,2019_Mar_19_1042,test_run,3.0.6,59.99808005380362,
124,ENW,ENW_34_jomera_150219.wav,n,c ,,,,,0,132,132,123,,,,,,,,,,,,,,,n,1,0.450418266991619,,,120,001,2019_Mar_19_1042,test_run,3.0.6,59.99808005380362,
76,EFW,EFW_46_foerhoer_070319.wav,j,c ,,,,,0,133,133,75,,,,,,,,,,,,,,,j,1,0.8861547480046283,,,120,001,2019_Mar_19_1042,test_run,3.0.6,59.99808005380362,
123,ENW,ENW_33_froamation_150219.wav,n,c ,,,,,0,134,134,122,,,,,,,,,,,,,,,n,1,0.3838220909819938,,,120,001,2019_Mar_19_1042,test_run,3.0.6,59.99808005380362,
31,EFW,EFW_1_allmaan_070319.wav,j,c ,,,,,0,135,135,30,,,,,,,,,,,,,,,j,1,0.3507573780079838,,,120,001,2019_Mar_19_1042,test_run,3.0.6,59.99808005380362,
152,ENW,ENW_62_ljullepilja_150219.wav,n,c ,,,,,0,136,136,151,,,,,,,,,,,,,,,n,1,0.25256809100392275,,,120,001,2019_Mar_19_1042,test_run,3.0.6,59.99808005380362,
40,EFW,EFW_10_laarare_070319.wav,j,c ,,,,,0,137,137,39,,,,,,,,,,,,,,,j,1,0.30284473398933187,,,120,001,2019_Mar_19_1042,test_run,3.0.6,59.99808005380362,
86,EFW,EFW_56_mormor_070319.wav,j,c ,,,,,0,138,138,85,,,,,,,,,,,,,,,j,1,0.2525582639791537,,,120,001,2019_Mar_19_1042,test_run,3.0.6,59.99808005380362,
140,ENW,ENW_50_omsänare_150219.wav,n,c ,,,,,0,139,139,139,,,,,,,,,,,,,,,n,1,0.38587976701091975,,,120,001,2019_Mar_19_1042,test_run,3.0.6,59.99808005380362,
108,ENW,ENW_18_moalursena_150219.wav,n,c ,,,,,0,140,140,107,,,,,,,,,,,,,,,n,1,0.4358462489908561,,,120,001,2019_Mar_19_1042,test_run,3.0.6,59.99808005380362,
138,ENW,ENW_48_skyjamsen_150219.wav,n,c ,,,,,0,141,141,137,,,,,,,,,,,,,,,n,1,0.26917775397305377,,,120,001,2019_Mar_19_1042,test_run,3.0.6,59.99808005380362,
112,ENW,ENW_22_fjäserna_150219.wav,n,c ,,,,,0,142,142,111,,,,,,,,,,,,,,,n,1,0.25065799700678326,,,120,001,2019_Mar_19_1042,test_run,3.0.6,59.99808005380362,
41,EFW,EFW_11_maanniskor_070319.wav,j,c ,,,,,0,143,143,40,,,,,,,,,,,,,,,j,1,0.30252807901706547,,,120,001,2019_Mar_19_1042,test_run,3.0.6,59.99808005380362,
51,EFW,EFW_21_varierar_070319.wav,j,c ,,,,,0,144,144,50,,,,,,,,,,,,,,,j,1,0.2527035259990953,,,120,001,2019_Mar_19_1042,test_run,3.0.6,59.99808005380362,
25,ECW,ECW_25_oeverfoeras_070319.wav,j,c ,,,,,0,145,145,24,,,,,,,,,,,,,,,j,1,0.41929636799613945,,,120,001,2019_Mar_19_1042,test_run,3.0.6,59.99808005380362,
147,ENW,ENW_57_flovanning_150219.wav,n,c ,,,,,0,146,146,146,,,,,,,,,,,,,,,n,1,0.25255518601625226,,,120,001,2019_Mar_19_1042,test_run,3.0.6,59.99808005380362,
85,EFW,EFW_55_oroar_070319.wav,j,c ,,,,,0,147,147,84,,,,,,,,,,,,,,,j,1,0.2529725120111834,,,120,001,2019_Mar_19_1042,test_run,3.0.6,59.99808005380362,
100,ENW,ENW_10_skinnamer_150219.wav,n,c ,,,,,0,148,148,99,,,,,,,,,,,,,,,n,1,0.7190876759996172,,,120,001,2019_Mar_19_1042,test_run,3.0.6,59.99808005380362,
54,EFW,EFW_24_foersvinner_070319.wav,j,c ,,,,,0,149,149,53,,,,,,,,,,,,,,,j,1,0.2522922770003788,,,120,001,2019_Mar_19_1042,test_run,3.0.6,59.99808005380362,
3,ECW,ECW_3_virus_070319.wav,j,c ,,,,,0,150,150,2,,,,,,,,,,,,,,,j,1,0.23531153998919763,,,120,001,2019_Mar_19_1042,test_run,3.0.6,59.99808005380362,
125,ENW,ENW_35_nymaljen_150219.wav,n,c ,,,,,0,151,151,124,,,,,,,,,,,,,,,n,1,0.4362657160090748,,,120,001,2019_Mar_19_1042,test_run,3.0.6,59.99808005380362,
26,ECW,ECW_26_kroenikoeren_070319.wav,j,c ,,,,,0,152,152,25,,,,,,,,,,,,,,,j,1,0.31899948700447567,,,120,001,2019_Mar_19_1042,test_run,3.0.6,59.99808005380362,
83,EFW,EFW_53_sovrum_070319.wav,j,c ,,,,,0,153,153,82,,,,,,,,,,,,,,,j,1,0.21944062600960024,,,120,001,2019_Mar_19_1042,test_run,3.0.6,59.99808005380362,
179,ENW,ENW_89_mikenspoan_150219.wav,n,c ,,,,,0,154,154,178,,,,,,,,,,,,,,,n,1,0.43625259899999946,,,120,001,2019_Mar_19_1042,test_run,3.0.6,59.99808005380362,
24,ECW,ECW_24_fysiker_070319.wav,j,c ,,,,,0,155,155,23,,,,,,,,,,,,,,,j,1,0.2858567429939285,,,120,001,2019_Mar_19_1042,test_run,3.0.6,59.99808005380362,
117,ENW,ENW_27_lyssvinner_150219.wav,n,c ,,,,,0,156,156,116,,,,,,,,,,,,,,,n,1,0.28574716797447763,,,120,001,2019_Mar_19_1042,test_run,3.0.6,59.99808005380362,
21,ECW,ECW_21_husera_070319.wav,j,c ,,,,,0,157,157,20,,,,,,,,,,,,,,,j,1,0.2524470239877701,,,120,001,2019_Mar_19_1042,test_run,3.0.6,59.99808005380362,
91,ENW,ENW_1_norsimerar_150219.wav,n,c ,,,,,0,158,158,90,,,,,,,,,,,,,,,n,1,0.2692205319763161,,,120,001,2019_Mar_19_1042,test_run,3.0.6,59.99808005380362,
19,ECW,ECW_19_persiska_070319.wav,j,c ,,,,,0,159,159,18,,,,,,,,,,,,,,,j,1,0.35253519800608046,,,120,001,2019_Mar_19_1042,test_run,3.0.6,59.99808005380362,
18,ECW,ECW_18_morkulla_070319.wav,j,c ,,,,,0,160,160,17,,,,,,,,,,,,,,,n,0,0.2522652879997622,,,120,001,2019_Mar_19_1042,test_run,3.0.6,59.99808005380362,
168,ENW,ENW_78_morvinder_150219.wav,n,c ,,,,,0,161,161,167,,,,,,,,,,,,,,,n,1,0.23610177700174972,,,120,001,2019_Mar_19_1042,test_run,3.0.6,59.99808005380362,
165,ENW,ENW_75_foarskining_150219.wav,n,c ,,,,,0,162,162,164,,,,,,,,,,,,,,,n,1,0.2361101169954054,,,120,001,2019_Mar_19_1042,test_run,3.0.6,59.99808005380362,
34,EFW,EFW_4_foerminska_070319.wav,j,c ,,,,,0,163,163,33,,,,,,,,,,,,,,,j,1,0.28562656498979777,,,120,001,2019_Mar_19_1042,test_run,3.0.6,59.99808005380362,
75,EFW,EFW_45_innanfoer_070319.wav,j,c ,,,,,0,164,164,74,,,,,,,,,,,,,,,j,1,0.250522120972164,,,120,001,2019_Mar_19_1042,test_run,3.0.6,59.99808005380362,
173,ENW,ENW_83_fyrskovar_150219.wav,n,c ,,,,,0,165,165,172,,,,,,,,,,,,,,,n,1,0.2854884340194985,,,120,001,2019_Mar_19_1042,test_run,3.0.6,59.99808005380362,
92,ENW,ENW_2_overralka_150219.wav,n,c ,,,,,0,166,166,91,,,,,,,,,,,,,,,n,1,0.2521879920095671,,,120,001,2019_Mar_19_1042,test_run,3.0.6,59.99808005380362,
11,ECW,ECW_11_foersoeka_070319.wav,j,c ,,,,,0,167,167,10,,,,,,,,,,,,,,,j,1,0.3688667960232124,,,120,001,2019_Mar_19_1042,test_run,3.0.6,59.99808005380362,
96,ENW,ENW_6_vilfroaser_150219.wav,n,c ,,,,,0,168,168,95,,,,,,,,,,,,,,,n,1,0.3193326120090205,,,120,001,2019_Mar_19_1042,test_run,3.0.6,59.99808005380362,
142,ENW,ENW_52_filofyll_150219.wav,n,c ,,,,,0,169,169,141,,,,,,,,,,,,,,,n,1,0.4358782280178275,,,120,001,2019_Mar_19_1042,test_run,3.0.6,59.99808005380362,
50,EFW,EFW_20_fenomen_070319.wav,j,c ,,,,,0,170,170,49,,,,,,,,,,,,,,,j,1,0.43589252801029943,,,120,001,2019_Mar_19_1042,test_run,3.0.6,59.99808005380362,
80,EFW,EFW_50_snaalla_070319.wav,j,c ,,,,,0,171,171,79,,,,,,,,,,,,,,,j,1,0.25231618000543676,,,120,001,2019_Mar_19_1042,test_run,3.0.6,59.99808005380362,
106,ENW,ENW_16_rolinkar_150219.wav,n,c ,,,,,0,172,172,105,,,,,,,,,,,,,,,n,1,0.26925886201206595,,,120,001,2019_Mar_19_1042,test_run,3.0.6,59.99808005380362,
141,ENW,ENW_51_skillare_150219.wav,n,c ,,,,,0,173,173,140,,,,,,,,,,,,,,,n,1,0.2694190949841868,,,120,001,2019_Mar_19_1042,test_run,3.0.6,59.99808005380362,
10,ECW,ECW_10_flisa_070319.wav,j,c ,,,,,0,174,174,9,,,,,,,,,,,,,,,j,1,0.30251468397909775,,,120,001,2019_Mar_19_1042,test_run,3.0.6,59.99808005380362,
77,EFW,EFW_47_invoanare_070319.wav,j,c ,,,,,0,175,175,76,,,,,,,,,,,,,,,j,1,0.26967293000780046,,,120,001,2019_Mar_19_1042,test_run,3.0.6,59.99808005380362,
137,ENW,ENW_47_oafläppen_150219.wav,n,c ,,,,,0,176,176,136,,,,,,,,,,,,,,,n,1,0.33552711800439283,,,120,001,2019_Mar_19_1042,test_run,3.0.6,59.99808005380362,
20,ECW,ECW_20_sommarspel_070319.wav,j,c ,,,,,0,177,177,19,,,,,,,,,,,,,,,j,1,0.4024677029810846,,,120,001,2019_Mar_19_1042,test_run,3.0.6,59.99808005380362,
157,ENW,ENW_67_oafreskar_150219.wav,n,c ,,,,,0,178,178,156,,,,,,,,,,,,,,,n,1,0.3360607210197486,,,120,001,2019_Mar_19_1042,test_run,3.0.6,59.99808005380362,
151,ENW,ENW_61_myckskina_150219.wav,n,c ,,,,,0,179,179,150,,,,,,,,,,,,,,,n,1,0.702266344014788,,,120,001,2019_Mar_19_1042,test_run,3.0.6,59.99808005380362,
8,TTF,TTF_8_noet_070319.wav,,,1,rating_t_final.csv,t,final,,,,,0,0,0,0,0,0,0,1,0,0,0,7,,,,,,7,5.254,120,001,2019_Mar_19_1042,test_run,3.0.6,59.99808005380362,
30,TDF,TDF_30_sladd_070319.wav,,,1,rating_t_final.csv,t,final,,,,,0,0,0,0,0,0,0,1,0,1,1,29,,,,,,1,21.137,120,001,2019_Mar_19_1042,test_run,3.0.6,59.99808005380362,
5,TTF,TTF_5_voat_070319.wav,,,1,rating_t_final.csv,t,final,,,,,0,0,0,0,0,0,0,1,0,2,2,4,,,,,,7,1.387,120,001,2019_Mar_19_1042,test_run,3.0.6,59.99808005380362,
26,TDF,TDF_26_rymd_070319.wav,,,1,rating_t_final.csv,t,final,,,,,0,0,0,0,0,0,0,1,0,3,3,25,,,,,,1,2.52,120,001,2019_Mar_19_1042,test_run,3.0.6,59.99808005380362,
12,TTF,TTF_12_smet_070319.wav,,,1,rating_t_final.csv,t,final,,,,,0,0,0,0,0,0,0,1,0,4,4,11,,,,,,7,2.454,120,001,2019_Mar_19_1042,test_run,3.0.6,59.99808005380362,
19,TDF,TDF_19_sjod_070319.wav,,,1,rating_t_final.csv,t,final,,,,,0,0,0,0,0,0,0,1,0,5,5,18,,,,,,7,3.62,120,001,2019_Mar_19_1042,test_run,3.0.6,59.99808005380362,
10,TTF,TTF_10_broet_070319.wav,,,1,rating_t_final.csv,t,final,,,,,0,0,0,0,0,0,0,1,0,6,6,9,,,,,,7,1.936,120,001,2019_Mar_19_1042,test_run,3.0.6,59.99808005380362,
9,TTF,TTF_9_bot_070319.wav,,,1,rating_t_final.csv,t,final,,,,,0,0,0,0,0,0,0,1,0,7,7,8,,,,,,5,5.703,120,001,2019_Mar_19_1042,test_run,3.0.6,59.99808005380362,
2,TTF,TTF_2_vet_070319.wav,,,1,rating_t_final.csv,t,final,,,,,0,0,0,0,0,0,0,1,0,8,8,1,,,,,,7,1.354,120,001,2019_Mar_19_1042,test_run,3.0.6,59.99808005380362,
3,TTF,TTF_3_raat_070319.wav,,,1,rating_t_final.csv,t,final,,,,,0,0,0,0,0,0,0,1,0,9,9,2,,,,,,6,3.837,120,001,2019_Mar_19_1042,test_run,3.0.6,59.99808005380362,
6,TTF,TTF_6_voart_070319.wav,,,1,rating_t_final.csv,t,final,,,,,0,0,0,0,0,0,0,1,0,10,10,5,,,,,,7,1.388,120,001,2019_Mar_19_1042,test_run,3.0.6,59.99808005380362,
18,TDF,TDF_18_sjud_070319.wav,,,1,rating_t_final.csv,t,final,,,,,0,0,0,0,0,0,0,1,0,11,11,17,,,,,,3,4.753,120,001,2019_Mar_19_1042,test_run,3.0.6,59.99808005380362,
11,TTF,TTF_11_svit_070319.wav,,,1,rating_t_final.csv,t,final,,,,,0,0,0,0,0,0,0,1,0,12,12,10,,,,,,6,3.354,120,001,2019_Mar_19_1042,test_run,3.0.6,59.99808005380362,
31,TDF,TDF_31_brodd_070319.wav,,,1,rating_t_final.csv,t,final,,,,,0,0,0,0,0,0,0,1,0,13,13,30,,,,,,2,3.155,120,001,2019_Mar_19_1042,test_run,3.0.6,59.99808005380362,
25,TDF,TDF_25_synd_070319.wav,,,1,rating_t_final.csv,t,final,,,,,0,0,0,0,0,0,0,1,0,14,14,24,,,,,,1,1.987,120,001,2019_Mar_19_1042,test_run,3.0.6,59.99808005380362,
4,TTF,TTF_4_roet_070319.wav,,,1,rating_t_final.csv,t,final,,,,,0,0,0,0,0,0,0,1,0,15,15,3,,,,,,7,2.454,120,001,2019_Mar_19_1042,test_run,3.0.6,59.99808005380362,
20,TDF,TDF_20_god_070319.wav,,,1,rating_t_final.csv,t,final,,,,,0,0,0,0,0,0,0,1,0,16,16,19,,,,,,5,3.071,120,001,2019_Mar_19_1042,test_run,3.0.6,59.99808005380362,
7,TTF,TTF_7_vit_070319.wav,,,1,rating_t_final.csv,t,final,,,,,0,0,0,0,0,0,0,1,0,17,17,6,,,,,,7,1.137,120,001,2019_Mar_19_1042,test_run,3.0.6,59.99808005380362,
23,TDF,TDF_23_hud_070319.wav,,,1,rating_t_final.csv,t,final,,,,,0,0,0,0,0,0,0,1,0,18,18,22,,,,,,3,3.237,120,001,2019_Mar_19_1042,test_run,3.0.6,59.99808005380362,
21,TDF,TDF_21_ljod _070319.wav,,,1,rating_t_final.csv,t,final,,,,,0,0,0,0,0,0,0,1,0,19,19,20,,,,,,2,3.72,120,001,2019_Mar_19_1042,test_run,3.0.6,59.99808005380362,
17,TDF,TDF_17_sked_070319.wav,,,1,rating_t_final.csv,t,final,,,,,0,0,0,0,0,0,0,1,0,20,20,16,,,,,,2,1.737,120,001,2019_Mar_19_1042,test_run,3.0.6,59.99808005380362,
32,TDF,TDF_32_hoard_070319.wav,,,1,rating_t_final.csv,t,final,,,,,0,0,0,0,0,0,0,1,0,21,21,31,,,,,,1,2.387,120,001,2019_Mar_19_1042,test_run,3.0.6,59.99808005380362,
24,TDF,TDF_24_smid_070319.wav,,,1,rating_t_final.csv,t,final,,,,,0,0,0,0,0,0,0,1,0,22,22,23,,,,,,1,1.571,120,001,2019_Mar_19_1042,test_run,3.0.6,59.99808005380362,
16,TTF,TTF_16_font_070319.wav,,,1,rating_t_final.csv,t,final,,,,,0,0,0,0,0,0,0,1,0,23,23,15,,,,,,6,2.571,120,001,2019_Mar_19_1042,test_run,3.0.6,59.99808005380362,
27,TDF,TDF_27_sand_070319.wav,,,1,rating_t_final.csv,t,final,,,,,0,0,0,0,0,0,0,1,0,24,24,26,,,,,,3,2.221,120,001,2019_Mar_19_1042,test_run,3.0.6,59.99808005380362,
1,TTF,TTF_1_rit_070319.wav,,,1,rating_t_final.csv,t,final,,,,,0,0,0,0,0,0,0,1,0,25,25,0,,,,,,7,1.188,120,001,2019_Mar_19_1042,test_run,3.0.6,59.99808005380362,
15,TTF,TTF_15_not_070319.wav,,,1,rating_t_final.csv,t,final,,,,,0,0,0,0,0,0,0,1,0,26,26,14,,,,,,7,1.554,120,001,2019_Mar_19_1042,test_run,3.0.6,59.99808005380362,
28,TDF,TDF_28_brand_070319.wav,,,1,rating_t_final.csv,t,final,,,,,0,0,0,0,0,0,0,1,0,27,27,27,,,,,,2,1.604,120,001,2019_Mar_19_1042,test_run,3.0.6,59.99808005380362,
29,TDF,TDF_29_baadd_070319.wav,,,1,rating_t_final.csv,t,final,,,,,0,0,0,0,0,0,0,1,0,28,28,28,,,,,,4,2.721,120,001,2019_Mar_19_1042,test_run,3.0.6,59.99808005380362,
14,TTF,TTF_14_mot_070319.wav,,,1,rating_t_final.csv,t,final,,,,,0,0,0,0,0,0,0,1,0,29,29,13,,,,,,7,1.02,120,001,2019_Mar_19_1042,test_run,3.0.6,59.99808005380362,
13,TTF,TTF_13_gjut_070319.wav,,,1,rating_t_final.csv,t,final,,,,,0,0,0,0,0,0,0,1,0,30,30,12,,,,,,7,1.487,120,001,2019_Mar_19_1042,test_run,3.0.6,59.99808005380362,
22,TDF,TDF_22_hed_070319.wav,,,1,rating_t_final.csv,t,final,,,,,0,0,0,0,0,0,0,1,0,31,31,21,,,,,,1,1.621,120,001,2019_Mar_19_1042,test_run,3.0.6,59.99808005380362,
27,TTF,TTF_27_sant_070319.wav,,,1,rating_d_final.csv,d,final,,,,,0,0,0,0,0,1,1,0,0,0,0,26,,,,,,2,6.253,120,001,2019_Mar_19_1042,test_run,3.0.6,59.99808005380362,
6,TDF,TDF_6_voard_070319.wav,,,1,rating_d_final.csv,d,final,,,,,0,0,0,0,0,1,1,0,0,1,1,5,,,,,,6,2.904,120,001,2019_Mar_19_1042,test_run,3.0.6,59.99808005380362,
7,TDF,TDF_7_vid_070319.wav,,,1,rating_d_final.csv,d,final,,,,,0,0,0,0,0,1,1,0,0,2,2,6,,,,,,1,1.471,120,001,2019_Mar_19_1042,test_run,3.0.6,59.99808005380362,
4,TDF,TDF_4_rod_070319.wav,,,1,rating_d_final.csv,d,final,,,,,0,0,0,0,0,1,1,0,0,3,3,3,,,,,,7,1.455,120,001,2019_Mar_19_1042,test_run,3.0.6,59.99808005380362,
15,TDF,TDF_15_nod_070319.wav,,,1,rating_d_final.csv,d,final,,,,,0,0,0,0,0,1,1,0,0,4,4,14,,,,,,5,2.171,120,001,2019_Mar_19_1042,test_run,3.0.6,59.99808005380362,
3,TDF,TDF_3_raad_070319.wav,,,1,rating_d_final.csv,d,final,,,,,0,0,0,0,0,1,1,0,0,5,5,2,,,,,,7,1.07,120,001,2019_Mar_19_1042,test_run,3.0.6,59.99808005380362,
21,TTF,TTF_21_gjoet_070319.wav,,,1,rating_d_final.csv,d,final,,,,,0,0,0,0,0,1,1,0,0,6,6,20,,,,,,1,2.138,120,001,2019_Mar_19_1042,test_run,3.0.6,59.99808005380362,
10,TDF,TDF_10_brod_070319.wav,,,1,rating_d_final.csv,d,final,,,,,0,0,0,0,0,1,1,0,0,7,7,9,,,,,,7,2.138,120,001,2019_Mar_19_1042,test_run,3.0.6,59.99808005380362,
2,TDF,TDF_2_ved_070319.wav,,,1,rating_d_final.csv,d,final,,,,,0,0,0,0,0,1,1,0,0,8,8,1,,,,,,7,1.337,120,001,2019_Mar_19_1042,test_run,3.0.6,59.99808005380362,
17,TTF,TTF_17_sket_070319.wav,,,1,rating_d_final.csv,d,final,,,,,0,0,0,0,0,1,1,0,0,9,9,16,,,,,,1,2.138,120,001,2019_Mar_19_1042,test_run,3.0.6,59.99808005380362,
30,TTF,TTF_30_slatt_070319.wav,,,1,rating_d_final.csv,d,final,,,,,0,0,0,0,0,1,1,0,0,10,10,29,,,,,,1,1.571,120,001,2019_Mar_19_1042,test_run,3.0.6,59.99808005380362,
5,TDF,TDF_5_voad_070319.wav,,,1,rating_d_final.csv,d,final,,,,,0,0,0,0,0,1,1,0,0,11,11,4,,,,,,6,2.188,120,001,2019_Mar_19_1042,test_run,3.0.6,59.99808005380362,
24,TTF,TTF_24_smit_070319.wav,,,1,rating_d_final.csv,d,final,,,,,0,0,0,0,0,1,1,0,0,12,12,23,,,,,,1,1.371,120,001,2019_Mar_19_1042,test_run,3.0.6,59.99808005380362,
26,TTF,TTF_26_rymt_070319.wav,,,1,rating_d_final.csv,d,final,,,,,0,0,0,0,0,1,1,0,0,13,13,25,,,,,,2,5.321,120,001,2019_Mar_19_1042,test_run,3.0.6,59.99808005380362,
14,TDF,TDF_14_mod_070319.wav,,,1,rating_d_final.csv,d,final,,,,,0,0,0,0,0,1,1,0,0,14,14,13,,,,,,7,1.138,120,001,2019_Mar_19_1042,test_run,3.0.6,59.99808005380362,
29,TTF,TTF_29_bett_070319.wav,,,1,rating_d_final.csv,d,final,,,,,0,0,0,0,0,1,1,0,0,15,15,28,,,,,,1,1.303,120,001,2019_Mar_19_1042,test_run,3.0.6,59.99808005380362,
9,TDF,TDF_9_bod_070319.wav,,,1,rating_d_final.csv,d,final,,,,,0,0,0,0,0,1,1,0,0,16,16,8,,,,,,2,2.737,120,001,2019_Mar_19_1042,test_run,3.0.6,59.99808005380362,
16,TDF,TDF_16_fond_070319.wav,,,1,rating_d_final.csv,d,final,,,,,0,0,0,0,0,1,1,0,0,17,17,15,,,,,,7,1.354,120,001,2019_Mar_19_1042,test_run,3.0.6,59.99808005380362,
18,TTF,TTF_18_skjut_070319.wav,,,1,rating_d_final.csv,d,final,,,,,0,0,0,0,0,1,1,0,0,18,18,17,,,,,,1,1.854,120,001,2019_Mar_19_1042,test_run,3.0.6,59.99808005380362,
1,TDF,TDF_1_rid_070319.wav,,,1,rating_d_final.csv,d,final,,,,,0,0,0,0,0,1,1,0,0,19,19,0,,,,,,3,1.471,120,001,2019_Mar_19_1042,test_run,3.0.6,59.99808005380362,
22,TTF,TTF_22_het_070319.wav,,,1,rating_d_final.csv,d,final,,,,,0,0,0,0,0,1,1,0,0,20,20,21,,,,,,1,1.237,120,001,2019_Mar_19_1042,test_run,3.0.6,59.99808005380362,
8,TDF,TDF_8_nod_070319.wav,,,1,rating_d_final.csv,d,final,,,,,0,0,0,0,0,1,1,0,0,21,21,7,,,,,,5,3.204,120,001,2019_Mar_19_1042,test_run,3.0.6,59.99808005380362,
25,TTF,TTF_25_synt_070319.wav,,,1,rating_d_final.csv,d,final,,,,,0,0,0,0,0,1,1,0,0,22,22,24,,,,,,2,2.937,120,001,2019_Mar_19_1042,test_run,3.0.6,59.99808005380362,
11,TDF,TDF_11_svid_070319.wav,,,1,rating_d_final.csv,d,final,,,,,0,0,0,0,0,1,1,0,0,23,23,10,,,,,,1,1.304,120,001,2019_Mar_19_1042,test_run,3.0.6,59.99808005380362,
20,TTF,TTF_20_got_070319.wav,,,1,rating_d_final.csv,d,final,,,,,0,0,0,0,0,1,1,0,0,24,24,19,,,,,,1,1.588,120,001,2019_Mar_19_1042,test_run,3.0.6,59.99808005380362,
23,TTF,TTF_23_hut_070319.wav,,,1,rating_d_final.csv,d,final,,,,,0,0,0,0,0,1,1,0,0,25,25,22,,,,,,1,1.388,120,001,2019_Mar_19_1042,test_run,3.0.6,59.99808005380362,
19,TTF,TTF_19_skoet_070319.wav,,,1,rating_d_final.csv,d,final,,,,,0,0,0,0,0,1,1,0,0,26,26,18,,,,,,1,1.403,120,001,2019_Mar_19_1042,test_run,3.0.6,59.99808005380362,
28,TTF,TTF_28_brant_070319.wav,,,1,rating_d_final.csv,d,final,,,,,0,0,0,0,0,1,1,0,0,27,27,27,,,,,,1,1.004,120,001,2019_Mar_19_1042,test_run,3.0.6,59.99808005380362,
31,TTF,TTF_31_brott_070319.wav,,,1,rating_d_final.csv,d,final,,,,,0,0,0,0,0,1,1,0,0,28,28,30,,,,,,1,1.038,120,001,2019_Mar_19_1042,test_run,3.0.6,59.99808005380362,
32,TTF,TTF_32_hoart_070319.wav,,,1,rating_d_final.csv,d,final,,,,,0,0,0,0,0,1,1,0,0,29,29,31,,,,,,1,1.104,120,001,2019_Mar_19_1042,test_run,3.0.6,59.99808005380362,
13,TDF,TDF_13_ljud_070319.wav,,,1,rating_d_final.csv,d,final,,,,,0,0,0,0,0,1,1,0,0,30,30,12,,,,,,3,3.02,120,001,2019_Mar_19_1042,test_run,3.0.6,59.99808005380362,
12,TDF,TDF_12_smed_070319.wav,,,1,rating_d_final.csv,d,final,,,,,0,0,0,0,0,1,1,0,0,31,31,11,,,,,,6,3.403,120,001,2019_Mar_19_1042,test_run,3.0.6,59.99808005380362,
19,TDI,TDI_19_dun_150219.wav,,,2,rating_t_initial.csv,t,initial,,,,,0,1,1,1,0,0,0,1,0,0,0,18,,,,,,2,7.787,120,001,2019_Mar_19_1042,test_run,3.0.6,59.99808005380362,
27,TDI,TDI_27_doem_edit_150219.wav,,,2,rating_t_initial.csv,t,initial,,,,,0,1,1,1,0,0,0,1,0,1,1,26,,,,,,1,1.137,120,001,2019_Mar_19_1042,test_run,3.0.6,59.99808005380362,
7,TTI,TTI_7_tenn_150219.wav,,,2,rating_t_initial.csv,t,initial,,,,,0,1,1,1,0,0,0,1,0,2,2,6,,,,,,1,1.287,120,001,2019_Mar_19_1042,test_run,3.0.6,59.99808005380362,
17,TDI,TDI_17_dopp_150219.wav,,,2,rating_t_initial.csv,t,initial,,,,,0,1,1,1,0,0,0,1,0,3,3,16,,,,,,2,1.653,120,001,2019_Mar_19_1042,test_run,3.0.6,59.99808005380362,
20,TDI,TDI_20_dur_150219.wav,,,2,rating_t_initial.csv,t,initial,,,,,0,1,1,1,0,0,0,1,0,4,4,19,,,,,,1,1.821,120,001,2019_Mar_19_1042,test_run,3.0.6,59.99808005380362,
1,TTI,TTI_1_tag_150219.wav,,,2,rating_t_initial.csv,t,initial,,,,,0,1,1,1,0,0,0,1,0,5,5,0,,,,,,5,2.587,120,001,2019_Mar_19_1042,test_run,3.0.6,59.99808005380362,
11,TTI,TTI_11_tipp_150219.wav,,,2,rating_t_initial.csv,t,initial,,,,,0,1,1,1,0,0,0,1,0,6,6,10,,,,,,6,3.171,120,001,2019_Mar_19_1042,test_run,3.0.6,59.99808005380362,
16,TDI,TDI_16_don_150219.wav,,,2,rating_t_initial.csv,t,initial,,,,,0,1,1,1,0,0,0,1,0,7,7,15,,,,,,2,3.67,120,001,2019_Mar_19_1042,test_run,3.0.6,59.99808005380362,
8,TTI,TTI_8_tia_150219.wav,,,2,rating_t_initial.csv,t,initial,,,,,0,1,1,1,0,0,0,1,0,8,8,7,,,,,,7,1.02,120,001,2019_Mar_19_1042,test_run,3.0.6,59.99808005380362,
2,TTI,TTI_2_tagg_150219.wav,,,2,rating_t_initial.csv,t,initial,,,,,0,1,1,1,0,0,0,1,0,9,9,1,,,,,,7,1.337,120,001,2019_Mar_19_1042,test_run,3.0.6,59.99808005380362,
14,TTI,TTI_14_tok_150219.wav,,,2,rating_t_initial.csv,t,initial,,,,,0,1,1,1,0,0,0,1,0,10,10,13,,,,,,7,0.953,120,001,2019_Mar_19_1042,test_run,3.0.6,59.99808005380362,
23,TDI,TDI_23_doa_150219.wav,,,2,rating_t_initial.csv,t,initial,,,,,0,1,1,1,0,0,0,1,0,11,11,22,,,,,,1,1.653,120,001,2019_Mar_19_1042,test_run,3.0.6,59.99808005380362,
12,TTI,TTI_12_toa_150219.wav,,,2,rating_t_initial.csv,t,initial,,,,,0,1,1,1,0,0,0,1,0,12,12,11,,,,,,5,3.037,120,001,2019_Mar_19_1042,test_run,3.0.6,59.99808005380362,
9,TTI,TTI_9_till_150219.wav,,,2,rating_t_initial.csv,t,initial,,,,,0,1,1,1,0,0,0,1,0,13,13,8,,,,,,6,1.67,120,001,2019_Mar_19_1042,test_run,3.0.6,59.99808005380362,
25,TDI,TDI_25_daar_150219.wav,,,2,rating_t_initial.csv,t,initial,,,,,0,1,1,1,0,0,0,1,0,14,14,24,,,,,,1,1.204,120,001,2019_Mar_19_1042,test_run,3.0.6,59.99808005380362,
22,TDI,TDI_22_dy_150219.wav,,,2,rating_t_initial.csv,t,initial,,,,,0,1,1,1,0,0,0,1,0,15,15,21,,,,,,1,1.437,120,001,2019_Mar_19_1042,test_run,3.0.6,59.99808005380362,
13,TTI,TTI_13_tog_150219.wav,,,2,rating_t_initial.csv,t,initial,,,,,0,1,1,1,0,0,0,1,0,16,16,12,,,,,,7,2.904,120,001,2019_Mar_19_1042,test_run,3.0.6,59.99808005380362,
5,TTI,TTI_5_tass_150219.wav,,,2,rating_t_initial.csv,t,initial,,,,,0,1,1,1,0,0,0,1,0,17,17,4,,,,,,4,2.304,120,001,2019_Mar_19_1042,test_run,3.0.6,59.99808005380362,
24,TDI,TDI_24_daack_150219.wav,,,2,rating_t_initial.csv,t,initial,,,,,0,1,1,1,0,0,0,1,0,18,18,23,,,,,,3,2.17,120,001,2019_Mar_19_1042,test_run,3.0.6,59.99808005380362,
15,TDI,TDI_15_dom_150219.wav,,,2,rating_t_initial.csv,t,initial,,,,,0,1,1,1,0,0,0,1,0,19,19,14,,,,,,1,1.586,120,001,2019_Mar_19_1042,test_run,3.0.6,59.99808005380362,
3,TTI,TTI_3_tal_150219.wav,,,2,rating_t_initial.csv,t,initial,,,,,0,1,1,1,0,0,0,1,0,20,20,2,,,,,,7,0.952,120,001,2019_Mar_19_1042,test_run,3.0.6,59.99808005380362,
26,TDI,TDI_26_doe_150219.wav,,,2,rating_t_initial.csv,t,initial,,,,,0,1,1,1,0,0,0,1,0,21,21,25,,,,,,1,1.903,120,001,2019_Mar_19_1042,test_run,3.0.6,59.99808005380362,
4,TTI,TTI_4_tam_150219.wav,,,2,rating_t_initial.csv,t,initial,,,,,0,1,1,1,0,0,0,1,0,22,22,3,,,,,,6,2.487,120,001,2019_Mar_19_1042,test_run,3.0.6,59.99808005380362,
10,TTI,TTI_10_titt_150219.wav,,,2,rating_t_initial.csv,t,initial,,,,,0,1,1,1,0,0,0,1,0,23,23,9,,,,,,1,1.854,120,001,2019_Mar_19_1042,test_run,3.0.6,59.99808005380362,
18,TDI,TDI_18_dum_150219.wav,,,2,rating_t_initial.csv,t,initial,,,,,0,1,1,1,0,0,0,1,0,24,24,17,,,,,,1,1.054,120,001,2019_Mar_19_1042,test_run,3.0.6,59.99808005380362,
21,TDI,TDI_21_dugg_150219.wav,,,2,rating_t_initial.csv,t,initial,,,,,0,1,1,1,0,0,0,1,0,25,25,20,,,,,,2,1.103,120,001,2019_Mar_19_1042,test_run,3.0.6,59.99808005380362,
6,TTI,TTI_6_teg_150219.wav,,,2,rating_t_initial.csv,t,initial,,,,,0,1,1,1,0,0,0,1,0,26,26,5,,,,,,3,4.02,120,001,2019_Mar_19_1042,test_run,3.0.6,59.99808005380362,
6,TDI,TDI_6_deg_150219.wav,,,2,rating_d_initial.csv,d,initial,,,,,0,1,1,1,0,1,1,0,0,0,0,5,,,,,,6,4.221,120,001,2019_Mar_19_1042,test_run,3.0.6,59.99808005380362,
26,TTI,TTI_26_toe_150219.wav,,,2,rating_d_initial.csv,d,initial,,,,,0,1,1,1,0,1,1,0,0,1,1,25,,,,,,7,1.421,120,001,2019_Mar_19_1042,test_run,3.0.6,59.99808005380362,
7,TDI,TDI_7_den_150219.wav,,,2,rating_d_initial.csv,d,initial,,,,,0,1,1,1,0,1,1,0,0,2,2,6,,,,,,7,1.221,120,001,2019_Mar_19_1042,test_run,3.0.6,59.99808005380362,
2,TDI,TDI_2_dagg_150219.wav,,,2,rating_d_initial.csv,d,initial,,,,,0,1,1,1,0,1,1,0,0,3,3,1,,,,,,4,3.453,120,001,2019_Mar_19_1042,test_run,3.0.6,59.99808005380362,
11,TDI,TDI_11_dipp_150219.wav,,,2,rating_d_initial.csv,d,initial,,,,,0,1,1,1,0,1,1,0,0,4,4,10,,,,,,7,1.221,120,001,2019_Mar_19_1042,test_run,3.0.6,59.99808005380362,
5,TDI,TDI_5_dass_150219.wav,,,2,rating_d_initial.csv,d,initial,,,,,0,1,1,1,0,1,1,0,0,5,5,4,,,,,,7,1.637,120,001,2019_Mar_19_1042,test_run,3.0.6,59.99808005380362,
24,TTI,TTI_24_taack_150219.wav,,,2,rating_d_initial.csv,d,initial,,,,,0,1,1,1,0,1,1,0,0,6,6,23,,,,,,7,0.871,120,001,2019_Mar_19_1042,test_run,3.0.6,59.99808005380362,
19,TTI,TTI_19_tun_150219.wav,,,2,rating_d_initial.csv,d,initial,,,,,0,1,1,1,0,1,1,0,0,7,7,18,,,,,,7,2.37,120,001,2019_Mar_19_1042,test_run,3.0.6,59.99808005380362,
14,TDI,TDI_14_dok_150219.wav,,,2,rating_d_initial.csv,d,initial,,,,,0,1,1,1,0,1,1,0,0,8,8,13,,,,,,4,2.437,120,001,2019_Mar_19_1042,test_run,3.0.6,59.99808005380362,
25,TTI,TTI_25_taar_150219.wav,,,2,rating_d_initial.csv,d,initial,,,,,0,1,1,1,0,1,1,0,0,9,9,24,,,,,,7,0.938,120,001,2019_Mar_19_1042,test_run,3.0.6,59.99808005380362,
17,TTI,TTI_17_topp_150219.wav,,,2,rating_d_initial.csv,d,initial,,,,,0,1,1,1,0,1,1,0,0,10,10,16,,,,,,2,2.104,120,001,2019_Mar_19_1042,test_run,3.0.6,59.99808005380362,
16,TTI,TTI_16_ton_150219.wav,,,2,rating_d_initial.csv,d,initial,,,,,0,1,1,1,0,1,1,0,0,11,11,15,,,,,,2,3.887,120,001,2019_Mar_19_1042,test_run,3.0.6,59.99808005380362,
12,TDI,TDI_12_doa_150219.wav,,,2,rating_d_initial.csv,d,initial,,,,,0,1,1,1,0,1,1,0,0,12,12,11,,,,,,6,4.271,120,001,2019_Mar_19_1042,test_run,3.0.6,59.99808005380362,
13,TDI,TDI_13_dog_150219.wav,,,2,rating_d_initial.csv,d,initial,,,,,0,1,1,1,0,1,1,0,0,13,13,12,,,,,,5,1.971,120,001,2019_Mar_19_1042,test_run,3.0.6,59.99808005380362,
1,TDI,TDI_1_dag_150219.wav,,,2,rating_d_initial.csv,d,initial,,,,,0,1,1,1,0,1,1,0,0,14,14,0,,,,,,6,1.287,120,001,2019_Mar_19_1042,test_run,3.0.6,59.99808005380362,
10,TDI,TDI_10_ditt_150219.wav,,,2,rating_d_initial.csv,d,initial,,,,,0,1,1,1,0,1,1,0,0,15,15,9,,,,,,7,2.17,120,001,2019_Mar_19_1042,test_run,3.0.6,59.99808005380362,
21,TTI,TTI_21_tugg_150219.wav,,,2,rating_d_initial.csv,d,initial,,,,,0,1,1,1,0,1,1,0,0,16,16,20,,,,,,2,1.471,120,001,2019_Mar_19_1042,test_run,3.0.6,59.99808005380362,
23,TTI,TTI_23_toa_150219.wav,,,2,rating_d_initial.csv,d,initial,,,,,0,1,1,1,0,1,1,0,0,17,17,22,,,,,,1,1.238,120,001,2019_Mar_19_1042,test_run,3.0.6,59.99808005380362,
27,TTI,TTI_27_toem_150219.wav,,,2,rating_d_initial.csv,d,initial,,,,,0,1,1,1,0,1,1,0,0,18,18,26,,,,,,1,1.687,120,001,2019_Mar_19_1042,test_run,3.0.6,59.99808005380362,
20,TTI,TTI_20_tur_150219.wav,,,2,rating_d_initial.csv,d,initial,,,,,0,1,1,1,0,1,1,0,0,19,19,19,,,,,,6,2.72,120,001,2019_Mar_19_1042,test_run,3.0.6,59.99808005380362,
15,TTI,TTI_15_tom_150219.wav,,,2,rating_d_initial.csv,d,initial,,,,,0,1,1,1,0,1,1,0,0,20,20,14,,,,,,1,1.604,120,001,2019_Mar_19_1042,test_run,3.0.6,59.99808005380362,
22,TTI,TTI_22_ty_150219.wav,,,2,rating_d_initial.csv,d,initial,,,,,0,1,1,1,0,1,1,0,0,21,21,21,,,,,,4,1.954,120,001,2019_Mar_19_1042,test_run,3.0.6,59.99808005380362,
18,TTI,TTI_18_tum_150219.wav,,,2,rating_d_initial.csv,d,initial,,,,,0,1,1,1,0,1,1,0,0,22,22,17,,,,,,2,1.154,120,001,2019_Mar_19_1042,test_run,3.0.6,59.99808005380362,
3,TDI,TDI_3_dal_150219.wav,,,2,rating_d_initial.csv,d,initial,,,,,0,1,1,1,0,1,1,0,0,23,23,2,,,,,,7,1.387,120,001,2019_Mar_19_1042,test_run,3.0.6,59.99808005380362,
8,TDI,TDI_8_dia_150219.wav,,,2,rating_d_initial.csv,d,initial,,,,,0,1,1,1,0,1,1,0,0,24,24,7,,,,,,6,3.004,120,001,2019_Mar_19_1042,test_run,3.0.6,59.99808005380362,
4,TDI,TDI_4_dam_150219.wav,,,2,rating_d_initial.csv,d,initial,,,,,0,1,1,1,0,1,1,0,0,25,25,3,,,,,,6,1.37,120,001,2019_Mar_19_1042,test_run,3.0.6,59.99808005380362,
9,TDI,TDI_9_dill_150219.wav,,,2,rating_d_initial.csv,d,initial,,,,,0,1,1,1,0,1,1,0,0,26,26,8,,,,,,7,0.923,120,001,2019_Mar_19_1042,test_run,3.0.6,59.99808005380362,
