item,item_cond,sound,corr_ans,group,block_id,listname,rating_for,position,trials.thisRepN,trials.thisTrialN,trials.thisN,trials.thisIndex,run_block_type.thisRepN,run_block_type.thisTrialN,run_block_type.thisN,run_block_type.thisIndex,routine.thisRepN,routine.thisTrialN,routine.thisN,routine.thisIndex,rating_trials.thisRepN,rating_trials.thisTrialN,rating_trials.thisN,rating_trials.thisIndex,key_resp_1.keys,key_resp_1.rt,key_resp_2.keys,key_resp_2.corr,key_resp_2.rt,rating_1.response,rating_1.rt,participant,session,date,expName,psychopyVersion,frameRate,
,,,,,,,,,,,,,,,,,,,,,,,,,m,14.588183907006169,,,,,,121,001,2019_Mar_19_1330,test_run,3.0.6,60.00571938495792,
54,EFW,EFW_24_foersvinner_070319.wav,j,t,,,,,0,0,0,53,,,,,,,,,,,,,,,j,1,0.1698817480064463,,,121,001,2019_Mar_19_1330,test_run,3.0.6,60.00571938495792,
62,EFW,EFW_32_fyller_070319.wav,j,t,,,,,0,1,1,61,,,,,,,,,,,,,,,n,0,8.136355497001205,,,121,001,2019_Mar_19_1330,test_run,3.0.6,60.00571938495792,
159,ENW,ENW_69_mjohusa_150219.wav,n,t,,,,,0,2,2,158,,,,,,,,,,,,,,,n,1,0.25279374900856055,,,121,001,2019_Mar_19_1330,test_run,3.0.6,60.00571938495792,
65,EFW,EFW_35_affaarer_070319.wav,j,t,,,,,0,3,3,64,,,,,,,,,,,,,,,j,1,2.736818295001285,,,121,001,2019_Mar_19_1330,test_run,3.0.6,60.00571938495792,
121,ENW,ENW_31_romation_150219.wav,n,t,,,,,0,4,4,120,,,,,,,,,,,,,,,n,1,0.6004786549892742,,,121,001,2019_Mar_19_1330,test_run,3.0.6,60.00571938495792,
134,ENW,ENW_44_inlivna_150219.wav,n,t,,,,,0,5,5,133,,,,,,,,,,,,,,,n,1,2.936187305022031,,,121,001,2019_Mar_19_1330,test_run,3.0.6,60.00571938495792,
98,ENW,ENW_8_haväras_150219.wav,n,t,,,,,0,6,6,97,,,,,,,,,,,,,,,n,1,0.969888314983109,,,121,001,2019_Mar_19_1330,test_run,3.0.6,60.00571938495792,
178,ENW,ENW_88_marsifen_150219.wav,n,t,,,,,0,7,7,177,,,,,,,,,,,,,,,n,1,1.8196151409938466,,,121,001,2019_Mar_19_1330,test_run,3.0.6,60.00571938495792,
97,ENW,ENW_7_flasera_150219.wav,n,t,,,,,0,8,8,96,,,,,,,,,,,,,,,n,1,3.0196894780092407,,,121,001,2019_Mar_19_1330,test_run,3.0.6,60.00571938495792,
29,ETW,ETW_29_oeverhuvud_070319.wav,j,t,,,,,0,9,9,28,,,,,,,,,,,,,,,j,1,0.9197008959890809,,,121,001,2019_Mar_19_1330,test_run,3.0.6,60.00571938495792,
44,EFW,EFW_14_foersoeken_070319.wav,j,t,,,,,0,10,10,43,,,,,,,,,,,,,,,j,1,0.1528802889806684,,,121,001,2019_Mar_19_1330,test_run,3.0.6,60.00571938495792,
39,EFW,EFW_9_infektion_070319.wav,j,t,,,,,0,11,11,38,,,,,,,,,,,,,,,j,1,0.9363354049855843,,,121,001,2019_Mar_19_1330,test_run,3.0.6,60.00571938495792,
100,ENW,ENW_10_skinnamer_150219.wav,n,t,,,,,0,12,12,99,,,,,,,,,,,,,,,n,1,1.1190554089844227,,,121,001,2019_Mar_19_1330,test_run,3.0.6,60.00571938495792,
3,ETW,ETW_3_choklad_070319.wav,j,t,,,,,0,13,13,2,,,,,,,,,,,,,,,j,1,0.903055900009349,,,121,001,2019_Mar_19_1330,test_run,3.0.6,60.00571938495792,
90,EFW,EFW_60_insulin_070319.wav,j,t,,,,,0,14,14,89,,,,,,,,,,,,,,,j,1,0.3696512460010126,,,121,001,2019_Mar_19_1330,test_run,3.0.6,60.00571938495792,
88,EFW,EFW_58_examen_070319.wav,j,t,,,,,0,15,15,87,,,,,,,,,,,,,,,j,1,0.3197531499899924,,,121,001,2019_Mar_19_1330,test_run,3.0.6,60.00571938495792,
118,ENW,ENW_28_läkermask_150219.wav,n,t,,,,,0,16,16,117,,,,,,,,,,,,,,,j,0,0.9867399079957977,,,121,001,2019_Mar_19_1330,test_run,3.0.6,60.00571938495792,
16,ETW,ETW_16_episod_070319.wav,j,t,,,,,0,17,17,15,,,,,,,,,,,,,,,j,1,0.7701614589896053,,,121,001,2019_Mar_19_1330,test_run,3.0.6,60.00571938495792,
177,ENW,ENW_87_kloavare_150219.wav,n,t,,,,,0,18,18,176,,,,,,,,,,,,,,,n,1,0.6694821169949137,,,121,001,2019_Mar_19_1330,test_run,3.0.6,60.00571938495792,
19,ETW,ETW_19_saallskapshund_070319.wav,j,t,,,,,0,19,19,18,,,,,,,,,,,,,,,j,1,0.5696901630144566,,,121,001,2019_Mar_19_1330,test_run,3.0.6,60.00571938495792,
24,ETW,ETW_24_oeverfloed_070319.wav,j,t,,,,,0,20,20,23,,,,,,,,,,,,,,,j,1,0.3532511570083443,,,121,001,2019_Mar_19_1330,test_run,3.0.6,60.00571938495792,
69,EFW,EFW_39_foersvara_070319.wav,j,t,,,,,0,21,21,68,,,,,,,,,,,,,,,j,1,0.433866807987215,,,121,001,2019_Mar_19_1330,test_run,3.0.6,60.00571938495792,
166,ENW,ENW_76_omfläskor_150219.wav,n,t,,,,,0,22,22,165,,,,,,,,,,,,,,,n,1,0.6699221690068953,,,121,001,2019_Mar_19_1330,test_run,3.0.6,60.00571938495792,
95,ENW,ENW_5_spoamisk_150219.wav,n,t,,,,,0,23,23,94,,,,,,,,,,,,,,,n,1,0.8696905420219991,,,121,001,2019_Mar_19_1330,test_run,3.0.6,60.00571938495792,
42,EFW,EFW_12_foeremoal_070319.wav,j,t,,,,,0,24,24,41,,,,,,,,,,,,,,,j,1,0.4697447229991667,,,121,001,2019_Mar_19_1330,test_run,3.0.6,60.00571938495792,
8,ETW,ETW_8_samfund_070319.wav,j,t,,,,,0,25,25,7,,,,,,,,,,,,,,,j,1,0.38637667198781855,,,121,001,2019_Mar_19_1330,test_run,3.0.6,60.00571938495792,
85,EFW,EFW_55_oroar_070319.wav,j,t,,,,,0,26,26,84,,,,,,,,,,,,,,,j,1,0.38670102099422365,,,121,001,2019_Mar_19_1330,test_run,3.0.6,60.00571938495792,
112,ENW,ENW_22_fjäserna_150219.wav,n,t,,,,,0,27,27,111,,,,,,,,,,,,,,,n,1,0.4364224529999774,,,121,001,2019_Mar_19_1330,test_run,3.0.6,60.00571938495792,
58,EFW,EFW_28_olja_070319.wav,j,t,,,,,0,28,28,57,,,,,,,,,,,,,,,j,1,0.4030042880040128,,,121,001,2019_Mar_19_1330,test_run,3.0.6,60.00571938495792,
55,EFW,EFW_25_informera_070319.wav,j,t,,,,,0,29,29,54,,,,,,,,,,,,,,,j,1,0.3697306740214117,,,121,001,2019_Mar_19_1330,test_run,3.0.6,60.00571938495792,
86,EFW,EFW_56_mormor_070319.wav,j,t,,,,,0,30,30,85,,,,,,,,,,,,,,,j,1,0.4196914090134669,,,121,001,2019_Mar_19_1330,test_run,3.0.6,60.00571938495792,
11,ETW,ETW_11_period_070319.wav,j,t,,,,,0,31,31,10,,,,,,,,,,,,,,,j,1,0.40308440499939024,,,121,001,2019_Mar_19_1330,test_run,3.0.6,60.00571938495792,
15,ETW,ETW_15_knivsudd_070319.wav,j,t,,,,,0,32,32,14,,,,,,,,,,,,,,,j,1,0.46968135100905783,,,121,001,2019_Mar_19_1330,test_run,3.0.6,60.00571938495792,
38,EFW,EFW_8_samman_070319.wav,j,t,,,,,0,33,33,37,,,,,,,,,,,,,,,j,1,0.4530896490032319,,,121,001,2019_Mar_19_1330,test_run,3.0.6,60.00571938495792,
156,ENW,ENW_66_voarsmenar_150219.wav,n,t,,,,,0,34,34,155,,,,,,,,,,,,,,,n,1,0.91950233199168,,,121,001,2019_Mar_19_1330,test_run,3.0.6,60.00571938495792,
70,EFW,EFW_40_miljoner_070319.wav,j,t,,,,,0,35,35,69,,,,,,,,,,,,,,,j,1,0.40274328700616024,,,121,001,2019_Mar_19_1330,test_run,3.0.6,60.00571938495792,
172,ENW,ENW_82_värskappa_150219.wav,n,t,,,,,0,36,36,171,,,,,,,,,,,,,,,n,1,0.7531588739948347,,,121,001,2019_Mar_19_1330,test_run,3.0.6,60.00571938495792,
51,EFW,EFW_21_varierar_070319.wav,j,t,,,,,0,37,37,50,,,,,,,,,,,,,,,j,1,0.40300670301076025,,,121,001,2019_Mar_19_1330,test_run,3.0.6,60.00571938495792,
129,ENW,ENW_39_ljusonar_150219.wav,n,t,,,,,0,38,38,128,,,,,,,,,,,,,,,n,1,0.5362805720069446,,,121,001,2019_Mar_19_1330,test_run,3.0.6,60.00571938495792,
138,ENW,ENW_48_skyjamsen_150219.wav,n,t,,,,,0,39,39,137,,,,,,,,,,,,,,,n,1,0.45326631001080386,,,121,001,2019_Mar_19_1330,test_run,3.0.6,60.00571938495792,
78,EFW,EFW_48_varifroan_070319.wav,j,t,,,,,0,40,40,77,,,,,,,,,,,,,,,j,1,0.6838008899940178,,,121,001,2019_Mar_19_1330,test_run,3.0.6,60.00571938495792,
17,ETW,ETW_17_hemmavid_070319.wav,j,t,,,,,0,41,41,16,,,,,,,,,,,,,,,j,1,0.5338071139995009,,,121,001,2019_Mar_19_1330,test_run,3.0.6,60.00571938495792,
171,ENW,ENW_81_persifera_150219.wav,n,t,,,,,0,42,42,170,,,,,,,,,,,,,,,n,1,1.2696147100068629,,,121,001,2019_Mar_19_1330,test_run,3.0.6,60.00571938495792,
41,EFW,EFW_11_maanniskor_070319.wav,j,t,,,,,0,43,43,40,,,,,,,,,,,,,,,j,1,0.3697811960009858,,,121,001,2019_Mar_19_1330,test_run,3.0.6,60.00571938495792,
174,ENW,ENW_84_hurmarna_150219.wav,n,t,,,,,0,44,44,173,,,,,,,,,,,,,,,n,1,0.6865601110039279,,,121,001,2019_Mar_19_1330,test_run,3.0.6,60.00571938495792,
148,ENW,ENW_58_malvossa_150219.wav,n,t,,,,,0,45,45,147,,,,,,,,,,,,,,,n,1,0.4028089350031223,,,121,001,2019_Mar_19_1330,test_run,3.0.6,60.00571938495792,
40,EFW,EFW_10_laarare_070319.wav,j,t,,,,,0,46,46,39,,,,,,,,,,,,,,,j,1,0.41957045000162907,,,121,001,2019_Mar_19_1330,test_run,3.0.6,60.00571938495792,
49,EFW,EFW_19_roerelse_070319.wav,j,t,,,,,0,47,47,48,,,,,,,,,,,,,,,j,1,0.9364098549995106,,,121,001,2019_Mar_19_1330,test_run,3.0.6,60.00571938495792,
124,ENW,ENW_34_jomera_150219.wav,n,t,,,,,0,48,48,123,,,,,,,,,,,,,,,n,1,0.6196399930049665,,,121,001,2019_Mar_19_1330,test_run,3.0.6,60.00571938495792,
2,ETW,ETW_2_skillnad_070319.wav,j,t,,,,,0,49,49,1,,,,,,,,,,,,,,,j,1,0.41978079100954346,,,121,001,2019_Mar_19_1330,test_run,3.0.6,60.00571938495792,
139,ENW,ENW_49_hälskrena_150219.wav,n,t,,,,,0,50,50,138,,,,,,,,,,,,,,,n,1,1.0032024749962147,,,121,001,2019_Mar_19_1330,test_run,3.0.6,60.00571938495792,
56,EFW,EFW_26_armarna_070319.wav,j,t,,,,,0,51,51,55,,,,,,,,,,,,,,,j,1,0.4033870600105729,,,121,001,2019_Mar_19_1330,test_run,3.0.6,60.00571938495792,
163,ENW,ENW_73_vimmankalla_150219.wav,n,t,,,,,0,52,52,162,,,,,,,,,,,,,,,j,0,0.4197918989812024,,,121,001,2019_Mar_19_1330,test_run,3.0.6,60.00571938495792,
115,ENW,ENW_25_affierar_150219.wav,n,t,,,,,0,53,53,114,,,,,,,,,,,,,,,n,1,0.4004232379957102,,,121,001,2019_Mar_19_1330,test_run,3.0.6,60.00571938495792,
162,ENW,ENW_72_urskecken_150219.wav,n,t,,,,,0,54,54,161,,,,,,,,,,,,,,,n,1,2.8363099889829755,,,121,001,2019_Mar_19_1330,test_run,3.0.6,60.00571938495792,
36,EFW,EFW_6_massa_070319.wav,j,t,,,,,0,55,55,35,,,,,,,,,,,,,,,j,1,0.5365697189990897,,,121,001,2019_Mar_19_1330,test_run,3.0.6,60.00571938495792,
160,ENW,ENW_70_roklarner_150219.wav,n,t,,,,,0,56,56,159,,,,,,,,,,,,,,,n,1,0.502935532014817,,,121,001,2019_Mar_19_1330,test_run,3.0.6,60.00571938495792,
167,ENW,ENW_77_somfera_150219.wav,n,t,,,,,0,57,57,166,,,,,,,,,,,,,,,n,1,0.6362673160037957,,,121,001,2019_Mar_19_1330,test_run,3.0.6,60.00571938495792,
146,ENW,ENW_56_lysskarna_150219.wav,n,t,,,,,0,58,58,145,,,,,,,,,,,,,,,n,1,1.337148796999827,,,121,001,2019_Mar_19_1330,test_run,3.0.6,60.00571938495792,
173,ENW,ENW_83_fyrskovar_150219.wav,n,t,,,,,0,59,59,172,,,,,,,,,,,,,,,n,1,1.6029606560186949,,,121,001,2019_Mar_19_1330,test_run,3.0.6,60.00571938495792,
168,ENW,ENW_78_morvinder_150219.wav,n,t,,,,,0,60,60,167,,,,,,,,,,,,,,,n,1,0.8861197739897761,,,121,001,2019_Mar_19_1330,test_run,3.0.6,60.00571938495792,
84,EFW,EFW_54_romaner_070319.wav,j,t,,,,,0,61,61,83,,,,,,,,,,,,,,,j,1,0.31962888900307007,,,121,001,2019_Mar_19_1330,test_run,3.0.6,60.00571938495792,
96,ENW,ENW_6_vilfroaser_150219.wav,n,t,,,,,0,62,62,95,,,,,,,,,,,,,,,n,1,2.236254422023194,,,121,001,2019_Mar_19_1330,test_run,3.0.6,60.00571938495792,
104,ENW,ENW_14_kärmenor_150219.wav,n,t,,,,,0,63,63,103,,,,,,,,,,,,,,,n,1,1.6196756749995984,,,121,001,2019_Mar_19_1330,test_run,3.0.6,60.00571938495792,
169,ENW,ENW_79_lyxmare_150219.wav,n,t,,,,,0,64,64,168,,,,,,,,,,,,,,,n,1,1.769819194014417,,,121,001,2019_Mar_19_1330,test_run,3.0.6,60.00571938495792,
18,ETW,ETW_18_husfasad_070319.wav,j,t,,,,,0,65,65,17,,,,,,,,,,,,,,,j,1,0.35324713500449434,,,121,001,2019_Mar_19_1330,test_run,3.0.6,60.00571938495792,
28,ETW,ETW_28_kommunalroad_070319.wav,j,t,,,,,0,66,66,27,,,,,,,,,,,,,,,j,1,0.35309928201604635,,,121,001,2019_Mar_19_1330,test_run,3.0.6,60.00571938495792,
161,ENW,ENW_71_forskäckla_150219.wav,n,t,,,,,0,67,67,160,,,,,,,,,,,,,,,n,1,0.8025151519977953,,,121,001,2019_Mar_19_1330,test_run,3.0.6,60.00571938495792,
151,ENW,ENW_61_myckskina_150219.wav,n,t,,,,,0,68,68,150,,,,,,,,,,,,,,,j,0,3.4697894910059404,,,121,001,2019_Mar_19_1330,test_run,3.0.6,60.00571938495792,
103,ENW,ENW_13_forvaron_150219.wav,n,t,,,,,0,69,69,102,,,,,,,,,,,,,,,n,1,2.269592478987761,,,121,001,2019_Mar_19_1330,test_run,3.0.6,60.00571938495792,
60,EFW,EFW_30_officiella_070319.wav,j,t,,,,,0,70,70,59,,,,,,,,,,,,,,,j,1,0.3695970609842334,,,121,001,2019_Mar_19_1330,test_run,3.0.6,60.00571938495792,
122,ENW,ENW_32_fonering_150219.wav,n,t,,,,,0,71,71,121,,,,,,,,,,,,,,,n,1,0.7026668700273149,,,121,001,2019_Mar_19_1330,test_run,3.0.6,60.00571938495792,
34,EFW,EFW_4_foerminska_070319.wav,j,t,,,,,0,72,72,33,,,,,,,,,,,,,,,j,1,0.43633479400887154,,,121,001,2019_Mar_19_1330,test_run,3.0.6,60.00571938495792,
164,ENW,ENW_74_malsera_150219.wav,n,t,,,,,0,73,73,163,,,,,,,,,,,,,,,n,1,0.6864042859815527,,,121,001,2019_Mar_19_1330,test_run,3.0.6,60.00571938495792,
123,ENW,ENW_33_froamation_150219.wav,n,t,,,,,0,74,74,122,,,,,,,,,,,,,,,n,1,1.0196962369955145,,,121,001,2019_Mar_19_1330,test_run,3.0.6,60.00571938495792,
147,ENW,ENW_57_flovanning_150219.wav,n,t,,,,,0,75,75,146,,,,,,,,,,,,,,,n,1,0.8504604299960192,,,121,001,2019_Mar_19_1330,test_run,3.0.6,60.00571938495792,
101,ENW,ENW_11_fränna_150219.wav,n,t,,,,,0,76,76,100,,,,,,,,,,,,,,,n,1,1.0032174910011236,,,121,001,2019_Mar_19_1330,test_run,3.0.6,60.00571938495792,
105,ENW,ENW_15_forfeckla_150219.wav,n,t,,,,,0,77,77,104,,,,,,,,,,,,,,,j,0,3.503425700997468,,,121,001,2019_Mar_19_1330,test_run,3.0.6,60.00571938495792,
87,EFW,EFW_57_loenerna_070319.wav,j,t,,,,,0,78,78,86,,,,,,,,,,,,,,,j,1,0.6863338809926063,,,121,001,2019_Mar_19_1330,test_run,3.0.6,60.00571938495792,
109,ENW,ENW_19_morloren_150219.wav,n,t,,,,,0,79,79,108,,,,,,,,,,,,,,,n,1,0.6033027170051355,,,121,001,2019_Mar_19_1330,test_run,3.0.6,60.00571938495792,
43,EFW,EFW_13_elever_070319.wav,j,t,,,,,0,80,80,42,,,,,,,,,,,,,,,j,1,0.33663223701296374,,,121,001,2019_Mar_19_1330,test_run,3.0.6,60.00571938495792,
48,EFW,EFW_18_nummer_070319.wav,j,t,,,,,0,81,81,47,,,,,,,,,,,,,,,j,1,0.6693733419815544,,,121,001,2019_Mar_19_1330,test_run,3.0.6,60.00571938495792,
30,ETW,ETW_30_oeverlevnad_070319.wav,j,t,,,,,0,82,82,29,,,,,,,,,,,,,,,j,1,0.319726415007608,,,121,001,2019_Mar_19_1330,test_run,3.0.6,60.00571938495792,
145,ENW,ENW_55_invaskin_150219.wav,n,t,,,,,0,83,83,144,,,,,,,,,,,,,,,n,1,0.9029308590106666,,,121,001,2019_Mar_19_1330,test_run,3.0.6,60.00571938495792,
119,ENW,ENW_29_uppskira_150219.wav,n,t,,,,,0,84,84,118,,,,,,,,,,,,,,,n,1,0.16971280699362978,,,121,001,2019_Mar_19_1330,test_run,3.0.6,60.00571938495792,
144,ENW,ENW_54_lomering_150219.wav,n,t,,,,,0,85,85,143,,,,,,,,,,,,,,,n,1,0.4361200359999202,,,121,001,2019_Mar_19_1330,test_run,3.0.6,60.00571938495792,
74,EFW,EFW_44_ljusa_070319.wav,j,t,,,,,0,86,86,73,,,,,,,,,,,,,,,j,1,0.13639350901939906,,,121,001,2019_Mar_19_1330,test_run,3.0.6,60.00571938495792,
21,ETW,ETW_21_marmelad_070319.wav,j,t,,,,,0,87,87,20,,,,,,,,,,,,,,,j,1,0.45046013698447496,,,121,001,2019_Mar_19_1330,test_run,3.0.6,60.00571938495792,
76,EFW,EFW_46_foerhoer_070319.wav,j,t,,,,,0,88,88,75,,,,,,,,,,,,,,,j,1,0.3364455630071461,,,121,001,2019_Mar_19_1330,test_run,3.0.6,60.00571938495792,
47,EFW,EFW_17_januari_070319.wav,j,t,,,,,0,89,89,46,,,,,,,,,,,,,,,j,1,0.3359593019995373,,,121,001,2019_Mar_19_1330,test_run,3.0.6,60.00571938495792,
116,ENW,ENW_26_anufera_150219.wav,n,t,,,,,0,90,90,115,,,,,,,,,,,,,,,n,1,0.35303476999979466,,,121,001,2019_Mar_19_1330,test_run,3.0.6,60.00571938495792,
45,EFW,EFW_15_oeverens_070319.wav,j,t,,,,,0,91,91,44,,,,,,,,,,,,,,,j,1,0.3031206160085276,,,121,001,2019_Mar_19_1330,test_run,3.0.6,60.00571938495792,
107,ENW,ENW_17_kopynnor_150219.wav,n,t,,,,,0,92,92,106,,,,,,,,,,,,,,,n,1,0.6338285070087295,,,121,001,2019_Mar_19_1330,test_run,3.0.6,60.00571938495792,
170,ENW,ENW_80_tjarfera_150219.wav,n,t,,,,,0,93,93,169,,,,,,,,,,,,,,,n,1,0.786090307025006,,,121,001,2019_Mar_19_1330,test_run,3.0.6,60.00571938495792,
13,ETW,ETW_13_oevervoald_070319.wav,j,t,,,,,0,94,94,12,,,,,,,,,,,,,,,j,1,0.4031026140146423,,,121,001,2019_Mar_19_1330,test_run,3.0.6,60.00571938495792,
110,ENW,ENW_20_invonen_150219.wav,n,t,,,,,0,95,95,109,,,,,,,,,,,,,,,n,1,1.336270706000505,,,121,001,2019_Mar_19_1330,test_run,3.0.6,60.00571938495792,
63,EFW,EFW_33_elva_070319.wav,j,t,,,,,0,96,96,62,,,,,,,,,,,,,,,j,1,0.986334500979865,,,121,001,2019_Mar_19_1330,test_run,3.0.6,60.00571938495792,
35,EFW,EFW_5_samhaalle_070319.wav,j,t,,,,,0,97,97,34,,,,,,,,,,,,,,,j,1,0.36981465900316834,,,121,001,2019_Mar_19_1330,test_run,3.0.6,60.00571938495792,
132,ENW,ENW_42_hamsforing_150219.wav,n,t,,,,,0,98,98,131,,,,,,,,,,,,,,,n,1,1.4531502260069828,,,121,001,2019_Mar_19_1330,test_run,3.0.6,60.00571938495792,
92,ENW,ENW_2_overralka_150219.wav,n,t,,,,,0,99,99,91,,,,,,,,,,,,,,,n,1,0.8195983810001053,,,121,001,2019_Mar_19_1330,test_run,3.0.6,60.00571938495792,
71,EFW,EFW_41_infinna_070319.wav,j,t,,,,,0,100,100,70,,,,,,,,,,,,,,,j,1,0.26971118900110014,,,121,001,2019_Mar_19_1330,test_run,3.0.6,60.00571938495792,
111,ENW,ENW_21_tjulning_150219.wav,n,t,,,,,0,101,101,110,,,,,,,,,,,,,,,j,0,0.6365050429885741,,,121,001,2019_Mar_19_1330,test_run,3.0.6,60.00571938495792,
5,ETW,ETW_5_skepnad_070319.wav,j,t,,,,,0,102,102,4,,,,,,,,,,,,,,,j,1,0.3531821950164158,,,121,001,2019_Mar_19_1330,test_run,3.0.6,60.00571938495792,
179,ENW,ENW_89_mikenspoan_150219.wav,n,t,,,,,0,103,103,178,,,,,,,,,,,,,,,n,1,1.3196988739946391,,,121,001,2019_Mar_19_1330,test_run,3.0.6,60.00571938495792,
127,ENW,ENW_37_spallrivet_150219.wav,n,t,,,,,0,104,104,126,,,,,,,,,,,,,,,n,1,0.35309131399844773,,,121,001,2019_Mar_19_1330,test_run,3.0.6,60.00571938495792,
79,EFW,EFW_49_vaasen_070319.wav,j,t,,,,,0,105,105,78,,,,,,,,,,,,,,,j,1,0.35313197600771673,,,121,001,2019_Mar_19_1330,test_run,3.0.6,60.00571938495792,
106,ENW,ENW_16_rolinkar_150219.wav,n,t,,,,,0,106,106,105,,,,,,,,,,,,,,,n,1,0.9030262719898019,,,121,001,2019_Mar_19_1330,test_run,3.0.6,60.00571938495792,
133,ENW,ENW_43_axalän_150219.wav,n,t,,,,,0,107,107,132,,,,,,,,,,,,,,,n,1,2.603104515001178,,,121,001,2019_Mar_19_1330,test_run,3.0.6,60.00571938495792,
61,EFW,EFW_31_jaamfoera_070319.wav,j,t,,,,,0,108,108,60,,,,,,,,,,,,,,,j,1,0.3863221130159218,,,121,001,2019_Mar_19_1330,test_run,3.0.6,60.00571938495792,
26,ETW,ETW_26_olympiad_070319.wav,j,t,,,,,0,109,109,25,,,,,,,,,,,,,,,j,1,0.31717965099960566,,,121,001,2019_Mar_19_1330,test_run,3.0.6,60.00571938495792,
108,ENW,ENW_18_moalursena_150219.wav,n,t,,,,,0,110,110,107,,,,,,,,,,,,,,,n,1,0.6195720579999033,,,121,001,2019_Mar_19_1330,test_run,3.0.6,60.00571938495792,
14,ETW,ETW_14_myriad_070319.wav,j,t,,,,,0,111,111,13,,,,,,,,,,,,,,,j,1,0.46966967699700035,,,121,001,2019_Mar_19_1330,test_run,3.0.6,60.00571938495792,
83,EFW,EFW_53_sovrum_070319.wav,j,t,,,,,0,112,112,82,,,,,,,,,,,,,,,j,1,0.35316930900444277,,,121,001,2019_Mar_19_1330,test_run,3.0.6,60.00571938495792,
91,ENW,ENW_1_norsimerar_150219.wav,n,t,,,,,0,113,113,90,,,,,,,,,,,,,,,n,1,0.5364890710043255,,,121,001,2019_Mar_19_1330,test_run,3.0.6,60.00571938495792,
149,ENW,ENW_59_kyrkmänning_150219.wav,n,t,,,,,0,114,114,148,,,,,,,,,,,,,,,n,1,2.9526017169991974,,,121,001,2019_Mar_19_1330,test_run,3.0.6,60.00571938495792,
125,ENW,ENW_35_nymaljen_150219.wav,n,t,,,,,0,115,115,124,,,,,,,,,,,,,,,n,1,0.9196807050029747,,,121,001,2019_Mar_19_1330,test_run,3.0.6,60.00571938495792,
99,ENW,ENW_9_samlemor_150219.wav,n,t,,,,,0,116,116,98,,,,,,,,,,,,,,,n,1,0.5863819379883353,,,121,001,2019_Mar_19_1330,test_run,3.0.6,60.00571938495792,
80,EFW,EFW_50_snaalla_070319.wav,j,t,,,,,0,117,117,79,,,,,,,,,,,,,,,j,1,0.4171513689798303,,,121,001,2019_Mar_19_1330,test_run,3.0.6,60.00571938495792,
4,ETW,ETW_4_livraadd_070319.wav,j,t,,,,,0,118,118,3,,,,,,,,,,,,,,,j,1,0.736393038998358,,,121,001,2019_Mar_19_1330,test_run,3.0.6,60.00571938495792,
67,EFW,EFW_37_foervisso_070319.wav,j,t,,,,,0,119,119,66,,,,,,,,,,,,,,,j,1,0.40324166798382066,,,121,001,2019_Mar_19_1330,test_run,3.0.6,60.00571938495792,
57,EFW,EFW_27_analysera_070319.wav,j,t,,,,,0,120,120,56,,,,,,,,,,,,,,,j,1,0.3696106990100816,,,121,001,2019_Mar_19_1330,test_run,3.0.6,60.00571938495792,
89,EFW,EFW_59_filosofin_070319.wav,j,t,,,,,0,121,121,88,,,,,,,,,,,,,,,j,1,0.31996057598735206,,,121,001,2019_Mar_19_1330,test_run,3.0.6,60.00571938495792,
52,EFW,EFW_22_normala_070319.wav,j,t,,,,,0,122,122,51,,,,,,,,,,,,,,,j,1,0.35302364101517014,,,121,001,2019_Mar_19_1330,test_run,3.0.6,60.00571938495792,
31,EFW,EFW_1_allmaan_070319.wav,j,t,,,,,0,123,123,30,,,,,,,,,,,,,,,j,1,0.31971251900540665,,,121,001,2019_Mar_19_1330,test_run,3.0.6,60.00571938495792,
77,EFW,EFW_47_invoanare_070319.wav,j,t,,,,,0,124,124,76,,,,,,,,,,,,,,,j,1,0.30307109499699436,,,121,001,2019_Mar_19_1330,test_run,3.0.6,60.00571938495792,
73,EFW,EFW_43_halvoar_070319.wav,j,t,,,,,0,125,125,72,,,,,,,,,,,,,,,j,1,0.31990892899921164,,,121,001,2019_Mar_19_1330,test_run,3.0.6,60.00571938495792,
46,EFW,EFW_16_lyssna_070319.wav,j,t,,,,,0,126,126,45,,,,,,,,,,,,,,,j,1,0.333816347992979,,,121,001,2019_Mar_19_1330,test_run,3.0.6,60.00571938495792,
53,EFW,EFW_23_aamne_070319.wav,j,t,,,,,0,127,127,52,,,,,,,,,,,,,,,j,1,0.3366011210018769,,,121,001,2019_Mar_19_1330,test_run,3.0.6,60.00571938495792,
22,ETW,ETW_22_sinnesfrid_070319.wav,j,t,,,,,0,128,128,21,,,,,,,,,,,,,,,j,1,0.43640118499752134,,,121,001,2019_Mar_19_1330,test_run,3.0.6,60.00571938495792,
7,ETW,ETW_7_hemland_070319.wav,j,t,,,,,0,129,129,6,,,,,,,,,,,,,,,j,1,0.40384989499580115,,,121,001,2019_Mar_19_1330,test_run,3.0.6,60.00571938495792,
25,ETW,ETW_25_mikrosekund_070319.wav,j,t,,,,,0,130,130,24,,,,,,,,,,,,,,,j,1,0.38634609497967176,,,121,001,2019_Mar_19_1330,test_run,3.0.6,60.00571938495792,
50,EFW,EFW_20_fenomen_070319.wav,j,t,,,,,0,131,131,49,,,,,,,,,,,,,,,j,1,0.31957883600261994,,,121,001,2019_Mar_19_1330,test_run,3.0.6,60.00571938495792,
175,ENW,ENW_85_forlinna_150219.wav,n,t,,,,,0,132,132,174,,,,,,,,,,,,,,,n,1,0.6696370630234014,,,121,001,2019_Mar_19_1330,test_run,3.0.6,60.00571938495792,
143,ENW,ENW_53_svarmvisso_150219.wav,n,t,,,,,0,133,133,142,,,,,,,,,,,,,,,n,1,0.38660633499966934,,,121,001,2019_Mar_19_1330,test_run,3.0.6,60.00571938495792,
154,ENW,ENW_64_havskvare_150219.wav,n,t,,,,,0,134,134,153,,,,,,,,,,,,,,,n,1,1.7197713180212304,,,121,001,2019_Mar_19_1330,test_run,3.0.6,60.00571938495792,
126,ENW,ENW_36_skymlosa_150219.wav,n,t,,,,,0,135,135,125,,,,,,,,,,,,,,,j,0,1.0530982530035544,,,121,001,2019_Mar_19_1330,test_run,3.0.6,60.00571938495792,
135,ENW,ENW_45_fammoarens_150219.wav,n,t,,,,,0,136,136,134,,,,,,,,,,,,,,,n,1,0.48629486601566896,,,121,001,2019_Mar_19_1330,test_run,3.0.6,60.00571938495792,
94,ENW,ENW_4_kyllfaren_150219.wav,n,t,,,,,0,137,137,93,,,,,,,,,,,,,,,n,1,0.8697978630079888,,,121,001,2019_Mar_19_1330,test_run,3.0.6,60.00571938495792,
136,ENW,ENW_46_pommera_150219.wav,n,t,,,,,0,138,138,135,,,,,,,,,,,,,,,n,1,1.3528452359896619,,,121,001,2019_Mar_19_1330,test_run,3.0.6,60.00571938495792,
75,EFW,EFW_45_innanfoer_070319.wav,j,t,,,,,0,139,139,74,,,,,,,,,,,,,,,j,1,0.41971089597791433,,,121,001,2019_Mar_19_1330,test_run,3.0.6,60.00571938495792,
64,EFW,EFW_34_sommar_070319.wav,j,t,,,,,0,140,140,63,,,,,,,,,,,,,,,j,1,0.31714500099769793,,,121,001,2019_Mar_19_1330,test_run,3.0.6,60.00571938495792,
141,ENW,ENW_51_skillare_150219.wav,n,t,,,,,0,141,141,140,,,,,,,,,,,,,,,n,1,2.469744620990241,,,121,001,2019_Mar_19_1330,test_run,3.0.6,60.00571938495792,
1,ETW,ETW_1_oskuld_070319.wav,j,t,,,,,0,142,142,0,,,,,,,,,,,,,,,j,1,0.33634107300895266,,,121,001,2019_Mar_19_1330,test_run,3.0.6,60.00571938495792,
32,EFW,EFW_2_snarare_070319.wav,j,t,,,,,0,143,143,31,,,,,,,,,,,,,,,j,1,0.30289986002026126,,,121,001,2019_Mar_19_1330,test_run,3.0.6,60.00571938495792,
114,ENW,ENW_24_samjoner_150219.wav,n,t,,,,,0,144,144,113,,,,,,,,,,,,,,,n,1,0.8362618759856559,,,121,001,2019_Mar_19_1330,test_run,3.0.6,60.00571938495792,
66,EFW,EFW_36_haarifroan_070319.wav,j,t,,,,,0,145,145,65,,,,,,,,,,,,,,,j,1,0.33378327198443003,,,121,001,2019_Mar_19_1330,test_run,3.0.6,60.00571938495792,
137,ENW,ENW_47_oafläppen_150219.wav,n,t,,,,,0,146,146,136,,,,,,,,,,,,,,,n,1,2.6696710260002874,,,121,001,2019_Mar_19_1330,test_run,3.0.6,60.00571938495792,
72,EFW,EFW_42_naavaron_070319.wav,j,t,,,,,0,147,147,71,,,,,,,,,,,,,,,j,1,0.43596874398645014,,,121,001,2019_Mar_19_1330,test_run,3.0.6,60.00571938495792,
27,ETW,ETW_27_medellivslaangd_070319.wav,j,t,,,,,0,148,148,26,,,,,,,,,,,,,,,j,1,0.36997836400405504,,,121,001,2019_Mar_19_1330,test_run,3.0.6,60.00571938495792,
37,EFW,EFW_7_sociala_070319.wav,j,t,,,,,0,149,149,36,,,,,,,,,,,,,,,j,1,0.3522779199993238,,,121,001,2019_Mar_19_1330,test_run,3.0.6,60.00571938495792,
20,ETW,ETW_20_loppmarknad_070319.wav,j,t,,,,,0,150,150,19,,,,,,,,,,,,,,,j,1,0.5671321830013767,,,121,001,2019_Mar_19_1330,test_run,3.0.6,60.00571938495792,
12,ETW,ETW_12_offerlund_070319.wav,j,t,,,,,0,151,151,11,,,,,,,,,,,,,,,n,0,1.2863363320066128,,,121,001,2019_Mar_19_1330,test_run,3.0.6,60.00571938495792,
153,ENW,ENW_63_femyrisk_150219.wav,n,t,,,,,0,152,152,152,,,,,,,,,,,,,,,n,1,0.5529186369967647,,,121,001,2019_Mar_19_1330,test_run,3.0.6,60.00571938495792,
81,EFW,EFW_51_seminarier_070319.wav,j,t,,,,,0,153,153,80,,,,,,,,,,,,,,,j,1,0.3530834019766189,,,121,001,2019_Mar_19_1330,test_run,3.0.6,60.00571938495792,
113,ENW,ENW_23_allsänning_150219.wav,n,t,,,,,0,154,154,112,,,,,,,,,,,,,,,n,1,0.8504538699926343,,,121,001,2019_Mar_19_1330,test_run,3.0.6,60.00571938495792,
117,ENW,ENW_27_lyssvinner_150219.wav,n,t,,,,,0,155,155,116,,,,,,,,,,,,,,,n,1,0.3197189240017906,,,121,001,2019_Mar_19_1330,test_run,3.0.6,60.00571938495792,
128,ENW,ENW_38_roakanier_150219.wav,n,t,,,,,0,156,156,127,,,,,,,,,,,,,,,n,1,0.3364746170118451,,,121,001,2019_Mar_19_1330,test_run,3.0.6,60.00571938495792,
120,ENW,ENW_30_sojera_150219.wav,n,t,,,,,0,157,157,119,,,,,,,,,,,,,,,n,1,0.553243845992256,,,121,001,2019_Mar_19_1330,test_run,3.0.6,60.00571938495792,
131,ENW,ENW_41_vessmaren_150219.wav,n,t,,,,,0,158,158,130,,,,,,,,,,,,,,,n,1,0.28607581299729645,,,121,001,2019_Mar_19_1330,test_run,3.0.6,60.00571938495792,
33,EFW,EFW_3_familjen_070319.wav,j,t,,,,,0,159,159,32,,,,,,,,,,,,,,,j,1,0.3509786030044779,,,121,001,2019_Mar_19_1330,test_run,3.0.6,60.00571938495792,
180,ENW,ENW_90_skrivinar_150219.wav,n,t,,,,,0,160,160,179,,,,,,,,,,,,,,,n,1,0.5172147400153335,,,121,001,2019_Mar_19_1330,test_run,3.0.6,60.00571938495792,
157,ENW,ENW_67_oafreskar_150219.wav,n,t,,,,,0,161,161,156,,,,,,,,,,,,,,,n,1,0.40295340900775045,,,121,001,2019_Mar_19_1330,test_run,3.0.6,60.00571938495792,
150,ENW,ENW_60_lackpenar_150219.wav,n,t,,,,,0,162,162,149,,,,,,,,,,,,,,,n,1,0.45260879598208703,,,121,001,2019_Mar_19_1330,test_run,3.0.6,60.00571938495792,
102,ENW,ENW_12_snälmola_150219.wav,n,t,,,,,0,163,163,101,,,,,,,,,,,,,,,n,1,0.3505075839930214,,,121,001,2019_Mar_19_1330,test_run,3.0.6,60.00571938495792,
23,ETW,ETW_23_promenad_070319.wav,j,t,,,,,0,164,164,22,,,,,,,,,,,,,,,j,1,0.30302441000822,,,121,001,2019_Mar_19_1330,test_run,3.0.6,60.00571938495792,
6,ETW,ETW_6_vemod_070319.wav,j,t,,,,,0,165,165,5,,,,,,,,,,,,,,,j,1,0.7861895519890822,,,121,001,2019_Mar_19_1330,test_run,3.0.6,60.00571938495792,
82,EFW,EFW_52_framhoalla_070319.wav,j,t,,,,,0,166,166,81,,,,,,,,,,,,,,,j,1,0.486200054991059,,,121,001,2019_Mar_19_1330,test_run,3.0.6,60.00571938495792,
59,EFW,EFW_29_formen_070319.wav,j,t,,,,,0,167,167,58,,,,,,,,,,,,,,,j,1,0.35327475401572883,,,121,001,2019_Mar_19_1330,test_run,3.0.6,60.00571938495792,
10,ETW,ETW_10_nomad_070319.wav,j,t,,,,,0,168,168,9,,,,,,,,,,,,,,,j,1,0.43384402198717,,,121,001,2019_Mar_19_1330,test_run,3.0.6,60.00571938495792,
140,ENW,ENW_50_omsänare_150219.wav,n,t,,,,,0,169,169,139,,,,,,,,,,,,,,,n,1,0.6196055169857573,,,121,001,2019_Mar_19_1330,test_run,3.0.6,60.00571938495792,
130,ENW,ENW_40_knipackar_150219.wav,n,t,,,,,0,170,170,129,,,,,,,,,,,,,,,n,1,0.6864673109957948,,,121,001,2019_Mar_19_1330,test_run,3.0.6,60.00571938495792,
158,ENW,ENW_68_presionar_150219.wav,n,t,,,,,0,171,171,157,,,,,,,,,,,,,,,n,1,1.0697985290025827,,,121,001,2019_Mar_19_1330,test_run,3.0.6,60.00571938495792,
68,EFW,EFW_38_foerefoell_070319.wav,j,t,,,,,0,172,172,67,,,,,,,,,,,,,,,j,1,0.3534955900104251,,,121,001,2019_Mar_19_1330,test_run,3.0.6,60.00571938495792,
176,ENW,ENW_86_heloppsin_150219.wav,n,t,,,,,0,173,173,175,,,,,,,,,,,,,,,n,1,1.569721453008242,,,121,001,2019_Mar_19_1330,test_run,3.0.6,60.00571938495792,
165,ENW,ENW_75_foarskining_150219.wav,n,t,,,,,0,174,174,164,,,,,,,,,,,,,,,n,1,1.602868791000219,,,121,001,2019_Mar_19_1330,test_run,3.0.6,60.00571938495792,
93,ENW,ENW_3_vissorens_150219.wav,n,t,,,,,0,175,175,92,,,,,,,,,,,,,,,n,1,1.353146036999533,,,121,001,2019_Mar_19_1330,test_run,3.0.6,60.00571938495792,
142,ENW,ENW_52_filofyll_150219.wav,n,t,,,,,0,176,176,141,,,,,,,,,,,,,,,n,1,0.40303415097878315,,,121,001,2019_Mar_19_1330,test_run,3.0.6,60.00571938495792,
9,ETW,ETW_9_haarmed_070319.wav,j,t,,,,,0,177,177,8,,,,,,,,,,,,,,,j,1,0.3863799919781741,,,121,001,2019_Mar_19_1330,test_run,3.0.6,60.00571938495792,
155,ENW,ENW_65_hamfylla_150219.wav,n,t,,,,,0,178,178,154,,,,,,,,,,,,,,,n,1,0.7837866930058226,,,121,001,2019_Mar_19_1330,test_run,3.0.6,60.00571938495792,
152,ENW,ENW_62_ljullepilja_150219.wav,n,t,,,,,0,179,179,151,,,,,,,,,,,,,,,n,1,0.36963615799322724,,,121,001,2019_Mar_19_1330,test_run,3.0.6,60.00571938495792,
23,TDF,TDF_23_hud_070319.wav,,,1,rating_t_final.csv,t,final,,,,,0,0,0,0,0,0,0,1,0,0,0,22,,,,,,3,12.305,121,001,2019_Mar_19_1330,test_run,3.0.6,60.00571938495792,
25,TDF,TDF_25_synd_070319.wav,,,1,rating_t_final.csv,t,final,,,,,0,0,0,0,0,0,0,1,0,1,1,24,,,,,,5,2.804,121,001,2019_Mar_19_1330,test_run,3.0.6,60.00571938495792,
9,TTF,TTF_9_bot_070319.wav,,,1,rating_t_final.csv,t,final,,,,,0,0,0,0,0,0,0,1,0,2,2,8,,,,,,5,6.255,121,001,2019_Mar_19_1330,test_run,3.0.6,60.00571938495792,
15,TTF,TTF_15_not_070319.wav,,,1,rating_t_final.csv,t,final,,,,,0,0,0,0,0,0,0,1,0,3,3,14,,,,,,7,2.086,121,001,2019_Mar_19_1330,test_run,3.0.6,60.00571938495792,
16,TTF,TTF_16_font_070319.wav,,,1,rating_t_final.csv,t,final,,,,,0,0,0,0,0,0,0,1,0,4,4,15,,,,,,7,1.671,121,001,2019_Mar_19_1330,test_run,3.0.6,60.00571938495792,
10,TTF,TTF_10_broet_070319.wav,,,1,rating_t_final.csv,t,final,,,,,0,0,0,0,0,0,0,1,0,5,5,9,,,,,,7,5.171,121,001,2019_Mar_19_1330,test_run,3.0.6,60.00571938495792,
31,TDF,TDF_31_brodd_070319.wav,,,1,rating_t_final.csv,t,final,,,,,0,0,0,0,0,0,0,1,0,6,6,30,,,,,,7,2.838,121,001,2019_Mar_19_1330,test_run,3.0.6,60.00571938495792,
6,TTF,TTF_6_voart_070319.wav,,,1,rating_t_final.csv,t,final,,,,,0,0,0,0,0,0,0,1,0,7,7,5,,,,,,7,4.804,121,001,2019_Mar_19_1330,test_run,3.0.6,60.00571938495792,
14,TTF,TTF_14_mot_070319.wav,,,1,rating_t_final.csv,t,final,,,,,0,0,0,0,0,0,0,1,0,8,8,13,,,,,,7,1.121,121,001,2019_Mar_19_1330,test_run,3.0.6,60.00571938495792,
2,TTF,TTF_2_vet_070319.wav,,,1,rating_t_final.csv,t,final,,,,,0,0,0,0,0,0,0,1,0,9,9,1,,,,,,7,1.171,121,001,2019_Mar_19_1330,test_run,3.0.6,60.00571938495792,
22,TDF,TDF_22_hed_070319.wav,,,1,rating_t_final.csv,t,final,,,,,0,0,0,0,0,0,0,1,0,10,10,21,,,,,,1,1.821,121,001,2019_Mar_19_1330,test_run,3.0.6,60.00571938495792,
32,TDF,TDF_32_hoard_070319.wav,,,1,rating_t_final.csv,t,final,,,,,0,0,0,0,0,0,0,1,0,11,11,31,,,,,,3,3.838,121,001,2019_Mar_19_1330,test_run,3.0.6,60.00571938495792,
13,TTF,TTF_13_gjut_070319.wav,,,1,rating_t_final.csv,t,final,,,,,0,0,0,0,0,0,0,1,0,12,12,12,,,,,,7,2.438,121,001,2019_Mar_19_1330,test_run,3.0.6,60.00571938495792,
17,TDF,TDF_17_sked_070319.wav,,,1,rating_t_final.csv,t,final,,,,,0,0,0,0,0,0,0,1,0,13,13,16,,,,,,1,1.254,121,001,2019_Mar_19_1330,test_run,3.0.6,60.00571938495792,
11,TTF,TTF_11_svit_070319.wav,,,1,rating_t_final.csv,t,final,,,,,0,0,0,0,0,0,0,1,0,14,14,10,,,,,,7,1.488,121,001,2019_Mar_19_1330,test_run,3.0.6,60.00571938495792,
30,TDF,TDF_30_sladd_070319.wav,,,1,rating_t_final.csv,t,final,,,,,0,0,0,0,0,0,0,1,0,15,15,29,,,,,,1,1.138,121,001,2019_Mar_19_1330,test_run,3.0.6,60.00571938495792,
24,TDF,TDF_24_smid_070319.wav,,,1,rating_t_final.csv,t,final,,,,,0,0,0,0,0,0,0,1,0,16,16,23,,,,,,1,1.155,121,001,2019_Mar_19_1330,test_run,3.0.6,60.00571938495792,
20,TDF,TDF_20_god_070319.wav,,,1,rating_t_final.csv,t,final,,,,,0,0,0,0,0,0,0,1,0,17,17,19,,,,,,3,5.221,121,001,2019_Mar_19_1330,test_run,3.0.6,60.00571938495792,
26,TDF,TDF_26_rymd_070319.wav,,,1,rating_t_final.csv,t,final,,,,,0,0,0,0,0,0,0,1,0,18,18,25,,,,,,1,1.005,121,001,2019_Mar_19_1330,test_run,3.0.6,60.00571938495792,
7,TTF,TTF_7_vit_070319.wav,,,1,rating_t_final.csv,t,final,,,,,0,0,0,0,0,0,0,1,0,19,19,6,,,,,,7,0.888,121,001,2019_Mar_19_1330,test_run,3.0.6,60.00571938495792,
28,TDF,TDF_28_brand_070319.wav,,,1,rating_t_final.csv,t,final,,,,,0,0,0,0,0,0,0,1,0,20,20,27,,,,,,5,11.821,121,001,2019_Mar_19_1330,test_run,3.0.6,60.00571938495792,
29,TDF,TDF_29_baadd_070319.wav,,,1,rating_t_final.csv,t,final,,,,,0,0,0,0,0,0,0,1,0,21,21,28,,,,,,2,2.588,121,001,2019_Mar_19_1330,test_run,3.0.6,60.00571938495792,
5,TTF,TTF_5_voat_070319.wav,,,1,rating_t_final.csv,t,final,,,,,0,0,0,0,0,0,0,1,0,22,22,4,,,,,,7,1.271,121,001,2019_Mar_19_1330,test_run,3.0.6,60.00571938495792,
1,TTF,TTF_1_rit_070319.wav,,,1,rating_t_final.csv,t,final,,,,,0,0,0,0,0,0,0,1,0,23,23,0,,,,,,7,0.871,121,001,2019_Mar_19_1330,test_run,3.0.6,60.00571938495792,
8,TTF,TTF_8_noet_070319.wav,,,1,rating_t_final.csv,t,final,,,,,0,0,0,0,0,0,0,1,0,24,24,7,,,,,,7,0.938,121,001,2019_Mar_19_1330,test_run,3.0.6,60.00571938495792,
12,TTF,TTF_12_smet_070319.wav,,,1,rating_t_final.csv,t,final,,,,,0,0,0,0,0,0,0,1,0,25,25,11,,,,,,7,1.021,121,001,2019_Mar_19_1330,test_run,3.0.6,60.00571938495792,
18,TDF,TDF_18_sjud_070319.wav,,,1,rating_t_final.csv,t,final,,,,,0,0,0,0,0,0,0,1,0,26,26,17,,,,,,1,2.338,121,001,2019_Mar_19_1330,test_run,3.0.6,60.00571938495792,
21,TDF,TDF_21_ljod _070319.wav,,,1,rating_t_final.csv,t,final,,,,,0,0,0,0,0,0,0,1,0,27,27,20,,,,,,1,1.838,121,001,2019_Mar_19_1330,test_run,3.0.6,60.00571938495792,
4,TTF,TTF_4_roet_070319.wav,,,1,rating_t_final.csv,t,final,,,,,0,0,0,0,0,0,0,1,0,28,28,3,,,,,,7,1.205,121,001,2019_Mar_19_1330,test_run,3.0.6,60.00571938495792,
19,TDF,TDF_19_sjod_070319.wav,,,1,rating_t_final.csv,t,final,,,,,0,0,0,0,0,0,0,1,0,29,29,18,,,,,,1,2.337,121,001,2019_Mar_19_1330,test_run,3.0.6,60.00571938495792,
27,TDF,TDF_27_sand_070319.wav,,,1,rating_t_final.csv,t,final,,,,,0,0,0,0,0,0,0,1,0,30,30,26,,,,,,2,3.688,121,001,2019_Mar_19_1330,test_run,3.0.6,60.00571938495792,
3,TTF,TTF_3_raat_070319.wav,,,1,rating_t_final.csv,t,final,,,,,0,0,0,0,0,0,0,1,0,31,31,2,,,,,,7,0.888,121,001,2019_Mar_19_1330,test_run,3.0.6,60.00571938495792,
27,TTF,TTF_27_sant_070319.wav,,,1,rating_d_final.csv,d,final,,,,,0,0,0,0,0,1,1,0,0,0,0,26,,,,,,1,1.388,121,001,2019_Mar_19_1330,test_run,3.0.6,60.00571938495792,
3,TDF,TDF_3_raad_070319.wav,,,1,rating_d_final.csv,d,final,,,,,0,0,0,0,0,1,1,0,0,1,1,2,,,,,,6,3.788,121,001,2019_Mar_19_1330,test_run,3.0.6,60.00571938495792,
30,TTF,TTF_30_slatt_070319.wav,,,1,rating_d_final.csv,d,final,,,,,0,0,0,0,0,1,1,0,0,2,2,29,,,,,,1,1.154,121,001,2019_Mar_19_1330,test_run,3.0.6,60.00571938495792,
23,TTF,TTF_23_hut_070319.wav,,,1,rating_d_final.csv,d,final,,,,,0,0,0,0,0,1,1,0,0,3,3,22,,,,,,1,1.221,121,001,2019_Mar_19_1330,test_run,3.0.6,60.00571938495792,
16,TDF,TDF_16_fond_070319.wav,,,1,rating_d_final.csv,d,final,,,,,0,0,0,0,0,1,1,0,0,4,4,15,,,,,,6,2.054,121,001,2019_Mar_19_1330,test_run,3.0.6,60.00571938495792,
10,TDF,TDF_10_brod_070319.wav,,,1,rating_d_final.csv,d,final,,,,,0,0,0,0,0,1,1,0,0,5,5,9,,,,,,7,1.004,121,001,2019_Mar_19_1330,test_run,3.0.6,60.00571938495792,
6,TDF,TDF_6_voard_070319.wav,,,1,rating_d_final.csv,d,final,,,,,0,0,0,0,0,1,1,0,0,6,6,5,,,,,,7,13.271,121,001,2019_Mar_19_1330,test_run,3.0.6,60.00571938495792,
26,TTF,TTF_26_rymt_070319.wav,,,1,rating_d_final.csv,d,final,,,,,0,0,0,0,0,1,1,0,0,7,7,25,,,,,,1,1.954,121,001,2019_Mar_19_1330,test_run,3.0.6,60.00571938495792,
4,TDF,TDF_4_rod_070319.wav,,,1,rating_d_final.csv,d,final,,,,,0,0,0,0,0,1,1,0,0,8,8,3,,,,,,7,1.488,121,001,2019_Mar_19_1330,test_run,3.0.6,60.00571938495792,
19,TTF,TTF_19_skoet_070319.wav,,,1,rating_d_final.csv,d,final,,,,,0,0,0,0,0,1,1,0,0,9,9,18,,,,,,1,3.421,121,001,2019_Mar_19_1330,test_run,3.0.6,60.00571938495792,
2,TDF,TDF_2_ved_070319.wav,,,1,rating_d_final.csv,d,final,,,,,0,0,0,0,0,1,1,0,0,10,10,1,,,,,,7,1.071,121,001,2019_Mar_19_1330,test_run,3.0.6,60.00571938495792,
15,TDF,TDF_15_nod_070319.wav,,,1,rating_d_final.csv,d,final,,,,,0,0,0,0,0,1,1,0,0,11,11,14,,,,,,7,0.772,121,001,2019_Mar_19_1330,test_run,3.0.6,60.00571938495792,
17,TTF,TTF_17_sket_070319.wav,,,1,rating_d_final.csv,d,final,,,,,0,0,0,0,0,1,1,0,0,12,12,16,,,,,,1,0.838,121,001,2019_Mar_19_1330,test_run,3.0.6,60.00571938495792,
29,TTF,TTF_29_bett_070319.wav,,,1,rating_d_final.csv,d,final,,,,,0,0,0,0,0,1,1,0,0,13,13,28,,,,,,1,1.088,121,001,2019_Mar_19_1330,test_run,3.0.6,60.00571938495792,
22,TTF,TTF_22_het_070319.wav,,,1,rating_d_final.csv,d,final,,,,,0,0,0,0,0,1,1,0,0,14,14,21,,,,,,1,1.038,121,001,2019_Mar_19_1330,test_run,3.0.6,60.00571938495792,
20,TTF,TTF_20_got_070319.wav,,,1,rating_d_final.csv,d,final,,,,,0,0,0,0,0,1,1,0,0,15,15,19,,,,,,1,1.021,121,001,2019_Mar_19_1330,test_run,3.0.6,60.00571938495792,
9,TDF,TDF_9_bod_070319.wav,,,1,rating_d_final.csv,d,final,,,,,0,0,0,0,0,1,1,0,0,16,16,8,,,,,,2,3.721,121,001,2019_Mar_19_1330,test_run,3.0.6,60.00571938495792,
7,TDF,TDF_7_vid_070319.wav,,,1,rating_d_final.csv,d,final,,,,,0,0,0,0,0,1,1,0,0,17,17,6,,,,,,2,4.52,121,001,2019_Mar_19_1330,test_run,3.0.6,60.00571938495792,
24,TTF,TTF_24_smit_070319.wav,,,1,rating_d_final.csv,d,final,,,,,0,0,0,0,0,1,1,0,0,18,18,23,,,,,,1,1.054,121,001,2019_Mar_19_1330,test_run,3.0.6,60.00571938495792,
28,TTF,TTF_28_brant_070319.wav,,,1,rating_d_final.csv,d,final,,,,,0,0,0,0,0,1,1,0,0,19,19,27,,,,,,1,1.005,121,001,2019_Mar_19_1330,test_run,3.0.6,60.00571938495792,
14,TDF,TDF_14_mod_070319.wav,,,1,rating_d_final.csv,d,final,,,,,0,0,0,0,0,1,1,0,0,20,20,13,,,,,,7,4.37,121,001,2019_Mar_19_1330,test_run,3.0.6,60.00571938495792,
32,TTF,TTF_32_hoart_070319.wav,,,1,rating_d_final.csv,d,final,,,,,0,0,0,0,0,1,1,0,0,21,21,31,,,,,,1,1.305,121,001,2019_Mar_19_1330,test_run,3.0.6,60.00571938495792,
31,TTF,TTF_31_brott_070319.wav,,,1,rating_d_final.csv,d,final,,,,,0,0,0,0,0,1,1,0,0,22,22,30,,,,,,1,1.088,121,001,2019_Mar_19_1330,test_run,3.0.6,60.00571938495792,
21,TTF,TTF_21_gjoet_070319.wav,,,1,rating_d_final.csv,d,final,,,,,0,0,0,0,0,1,1,0,0,23,23,20,,,,,,1,1.071,121,001,2019_Mar_19_1330,test_run,3.0.6,60.00571938495792,
18,TTF,TTF_18_skjut_070319.wav,,,1,rating_d_final.csv,d,final,,,,,0,0,0,0,0,1,1,0,0,24,24,17,,,,,,1,1.121,121,001,2019_Mar_19_1330,test_run,3.0.6,60.00571938495792,
8,TDF,TDF_8_nod_070319.wav,,,1,rating_d_final.csv,d,final,,,,,0,0,0,0,0,1,1,0,0,25,25,7,,,,,,7,1.538,121,001,2019_Mar_19_1330,test_run,3.0.6,60.00571938495792,
13,TDF,TDF_13_ljud_070319.wav,,,1,rating_d_final.csv,d,final,,,,,0,0,0,0,0,1,1,0,0,26,26,12,,,,,,2,10.121,121,001,2019_Mar_19_1330,test_run,3.0.6,60.00571938495792,
25,TTF,TTF_25_synt_070319.wav,,,1,rating_d_final.csv,d,final,,,,,0,0,0,0,0,1,1,0,0,27,27,24,,,,,,1,1.655,121,001,2019_Mar_19_1330,test_run,3.0.6,60.00571938495792,
1,TDF,TDF_1_rid_070319.wav,,,1,rating_d_final.csv,d,final,,,,,0,0,0,0,0,1,1,0,0,28,28,0,,,,,,4,4.654,121,001,2019_Mar_19_1330,test_run,3.0.6,60.00571938495792,
11,TDF,TDF_11_svid_070319.wav,,,1,rating_d_final.csv,d,final,,,,,0,0,0,0,0,1,1,0,0,29,29,10,,,,,,3,1.804,121,001,2019_Mar_19_1330,test_run,3.0.6,60.00571938495792,
5,TDF,TDF_5_voad_070319.wav,,,1,rating_d_final.csv,d,final,,,,,0,0,0,0,0,1,1,0,0,30,30,4,,,,,,7,3.403,121,001,2019_Mar_19_1330,test_run,3.0.6,60.00571938495792,
12,TDF,TDF_12_smed_070319.wav,,,1,rating_d_final.csv,d,final,,,,,0,0,0,0,0,1,1,0,0,31,31,11,,,,,,7,0.921,121,001,2019_Mar_19_1330,test_run,3.0.6,60.00571938495792,
24,TTI,TTI_24_taack_150219.wav,,,2,rating_d_initial.csv,d,initial,,,,,0,1,1,1,0,0,0,0,0,0,0,23,,,,,,1,2.371,121,001,2019_Mar_19_1330,test_run,3.0.6,60.00571938495792,
26,TTI,TTI_26_toe_150219.wav,,,2,rating_d_initial.csv,d,initial,,,,,0,1,1,1,0,0,0,0,0,1,1,25,,,,,,2,5.536,121,001,2019_Mar_19_1330,test_run,3.0.6,60.00571938495792,
9,TDI,TDI_9_dill_150219.wav,,,2,rating_d_initial.csv,d,initial,,,,,0,1,1,1,0,0,0,0,0,2,2,8,,,,,,7,1.271,121,001,2019_Mar_19_1330,test_run,3.0.6,60.00571938495792,
25,TTI,TTI_25_taar_150219.wav,,,2,rating_d_initial.csv,d,initial,,,,,0,1,1,1,0,0,0,0,0,3,3,24,,,,,,5,2.555,121,001,2019_Mar_19_1330,test_run,3.0.6,60.00571938495792,
17,TTI,TTI_17_topp_150219.wav,,,2,rating_d_initial.csv,d,initial,,,,,0,1,1,1,0,0,0,0,0,4,4,16,,,,,,1,2.321,121,001,2019_Mar_19_1330,test_run,3.0.6,60.00571938495792,
22,TTI,TTI_22_ty_150219.wav,,,2,rating_d_initial.csv,d,initial,,,,,0,1,1,1,0,0,0,0,0,5,5,21,,,,,,1,1.354,121,001,2019_Mar_19_1330,test_run,3.0.6,60.00571938495792,
8,TDI,TDI_8_dia_150219.wav,,,2,rating_d_initial.csv,d,initial,,,,,0,1,1,1,0,0,0,0,0,6,6,7,,,,,,7,1.119,121,001,2019_Mar_19_1330,test_run,3.0.6,60.00571938495792,
6,TDI,TDI_6_deg_150219.wav,,,2,rating_d_initial.csv,d,initial,,,,,0,1,1,1,0,0,0,0,0,7,7,5,,,,,,7,1.021,121,001,2019_Mar_19_1330,test_run,3.0.6,60.00571938495792,
18,TTI,TTI_18_tum_150219.wav,,,2,rating_d_initial.csv,d,initial,,,,,0,1,1,1,0,0,0,0,0,8,8,17,,,,,,1,1.538,121,001,2019_Mar_19_1330,test_run,3.0.6,60.00571938495792,
12,TDI,TDI_12_doa_150219.wav,,,2,rating_d_initial.csv,d,initial,,,,,0,1,1,1,0,0,0,0,0,9,9,11,,,,,,4,6.637,121,001,2019_Mar_19_1330,test_run,3.0.6,60.00571938495792,
4,TDI,TDI_4_dam_150219.wav,,,2,rating_d_initial.csv,d,initial,,,,,0,1,1,1,0,0,0,0,0,10,10,3,,,,,,7,2.738,121,001,2019_Mar_19_1330,test_run,3.0.6,60.00571938495792,
11,TDI,TDI_11_dipp_150219.wav,,,2,rating_d_initial.csv,d,initial,,,,,0,1,1,1,0,0,0,0,0,11,11,10,,,,,,4,2.271,121,001,2019_Mar_19_1330,test_run,3.0.6,60.00571938495792,
23,TTI,TTI_23_toa_150219.wav,,,2,rating_d_initial.csv,d,initial,,,,,0,1,1,1,0,0,0,0,0,12,12,22,,,,,,1,2.005,121,001,2019_Mar_19_1330,test_run,3.0.6,60.00571938495792,
21,TTI,TTI_21_tugg_150219.wav,,,2,rating_d_initial.csv,d,initial,,,,,0,1,1,1,0,0,0,0,0,13,13,20,,,,,,1,1.471,121,001,2019_Mar_19_1330,test_run,3.0.6,60.00571938495792,
2,TDI,TDI_2_dagg_150219.wav,,,2,rating_d_initial.csv,d,initial,,,,,0,1,1,1,0,0,0,0,0,14,14,1,,,,,,7,1.088,121,001,2019_Mar_19_1330,test_run,3.0.6,60.00571938495792,
20,TTI,TTI_20_tur_150219.wav,,,2,rating_d_initial.csv,d,initial,,,,,0,1,1,1,0,0,0,0,0,15,15,19,,,,,,1,1.121,121,001,2019_Mar_19_1330,test_run,3.0.6,60.00571938495792,
15,TTI,TTI_15_tom_150219.wav,,,2,rating_d_initial.csv,d,initial,,,,,0,1,1,1,0,0,0,0,0,16,16,14,,,,,,1,1.138,121,001,2019_Mar_19_1330,test_run,3.0.6,60.00571938495792,
3,TDI,TDI_3_dal_150219.wav,,,2,rating_d_initial.csv,d,initial,,,,,0,1,1,1,0,0,0,0,0,17,17,2,,,,,,7,0.955,121,001,2019_Mar_19_1330,test_run,3.0.6,60.00571938495792,
27,TTI,TTI_27_toem_150219.wav,,,2,rating_d_initial.csv,d,initial,,,,,0,1,1,1,0,0,0,0,0,18,18,26,,,,,,2,4.438,121,001,2019_Mar_19_1330,test_run,3.0.6,60.00571938495792,
16,TTI,TTI_16_ton_150219.wav,,,2,rating_d_initial.csv,d,initial,,,,,0,1,1,1,0,0,0,0,0,19,19,15,,,,,,1,1.204,121,001,2019_Mar_19_1330,test_run,3.0.6,60.00571938495792,
10,TDI,TDI_10_ditt_150219.wav,,,2,rating_d_initial.csv,d,initial,,,,,0,1,1,1,0,0,0,0,0,20,20,9,,,,,,5,5.088,121,001,2019_Mar_19_1330,test_run,3.0.6,60.00571938495792,
5,TDI,TDI_5_dass_150219.wav,,,2,rating_d_initial.csv,d,initial,,,,,0,1,1,1,0,0,0,0,0,21,21,4,,,,,,7,1.038,121,001,2019_Mar_19_1330,test_run,3.0.6,60.00571938495792,
14,TDI,TDI_14_dok_150219.wav,,,2,rating_d_initial.csv,d,initial,,,,,0,1,1,1,0,0,0,0,0,22,22,13,,,,,,5,4.988,121,001,2019_Mar_19_1330,test_run,3.0.6,60.00571938495792,
1,TDI,TDI_1_dag_150219.wav,,,2,rating_d_initial.csv,d,initial,,,,,0,1,1,1,0,0,0,0,0,23,23,0,,,,,,7,1.188,121,001,2019_Mar_19_1330,test_run,3.0.6,60.00571938495792,
7,TDI,TDI_7_den_150219.wav,,,2,rating_d_initial.csv,d,initial,,,,,0,1,1,1,0,0,0,0,0,24,24,6,,,,,,7,1.005,121,001,2019_Mar_19_1330,test_run,3.0.6,60.00571938495792,
13,TDI,TDI_13_dog_150219.wav,,,2,rating_d_initial.csv,d,initial,,,,,0,1,1,1,0,0,0,0,0,25,25,12,,,,,,7,0.988,121,001,2019_Mar_19_1330,test_run,3.0.6,60.00571938495792,
19,TTI,TTI_19_tun_150219.wav,,,2,rating_d_initial.csv,d,initial,,,,,0,1,1,1,0,0,0,0,0,26,26,18,,,,,,3,2.871,121,001,2019_Mar_19_1330,test_run,3.0.6,60.00571938495792,
3,TTI,TTI_3_tal_150219.wav,,,2,rating_t_initial.csv,t,initial,,,,,0,1,1,1,0,1,1,1,0,0,0,2,,,,,,4,7.188,121,001,2019_Mar_19_1330,test_run,3.0.6,60.00571938495792,
23,TDI,TDI_23_doa_150219.wav,,,2,rating_t_initial.csv,t,initial,,,,,0,1,1,1,0,1,1,1,0,1,1,22,,,,,,1,3.071,121,001,2019_Mar_19_1330,test_run,3.0.6,60.00571938495792,
27,TDI,TDI_27_doem_edit_150219.wav,,,2,rating_t_initial.csv,t,initial,,,,,0,1,1,1,0,1,1,1,0,2,2,26,,,,,,1,1.505,121,001,2019_Mar_19_1330,test_run,3.0.6,60.00571938495792,
7,TTI,TTI_7_tenn_150219.wav,,,2,rating_t_initial.csv,t,initial,,,,,0,1,1,1,0,1,1,1,0,3,3,6,,,,,,7,2.738,121,001,2019_Mar_19_1330,test_run,3.0.6,60.00571938495792,
20,TDI,TDI_20_dur_150219.wav,,,2,rating_t_initial.csv,t,initial,,,,,0,1,1,1,0,1,1,1,0,4,4,19,,,,,,1,1.071,121,001,2019_Mar_19_1330,test_run,3.0.6,60.00571938495792,
8,TTI,TTI_8_tia_150219.wav,,,2,rating_t_initial.csv,t,initial,,,,,0,1,1,1,0,1,1,1,0,5,5,7,,,,,,7,1.121,121,001,2019_Mar_19_1330,test_run,3.0.6,60.00571938495792,
26,TDI,TDI_26_doe_150219.wav,,,2,rating_t_initial.csv,t,initial,,,,,0,1,1,1,0,1,1,1,0,6,6,25,,,,,,1,0.988,121,001,2019_Mar_19_1330,test_run,3.0.6,60.00571938495792,
1,TTI,TTI_1_tag_150219.wav,,,2,rating_t_initial.csv,t,initial,,,,,0,1,1,1,0,1,1,1,0,7,7,0,,,,,,7,2.238,121,001,2019_Mar_19_1330,test_run,3.0.6,60.00571938495792,
25,TDI,TDI_25_daar_150219.wav,,,2,rating_t_initial.csv,t,initial,,,,,0,1,1,1,0,1,1,1,0,8,8,24,,,,,,1,1.155,121,001,2019_Mar_19_1330,test_run,3.0.6,60.00571938495792,
16,TDI,TDI_16_don_150219.wav,,,2,rating_t_initial.csv,t,initial,,,,,0,1,1,1,0,1,1,1,0,9,9,15,,,,,,1,1.771,121,001,2019_Mar_19_1330,test_run,3.0.6,60.00571938495792,
19,TDI,TDI_19_dun_150219.wav,,,2,rating_t_initial.csv,t,initial,,,,,0,1,1,1,0,1,1,1,0,10,10,18,,,,,,1,0.971,121,001,2019_Mar_19_1330,test_run,3.0.6,60.00571938495792,
15,TDI,TDI_15_dom_150219.wav,,,2,rating_t_initial.csv,t,initial,,,,,0,1,1,1,0,1,1,1,0,11,11,14,,,,,,1,1.303,121,001,2019_Mar_19_1330,test_run,3.0.6,60.00571938495792,
17,TDI,TDI_17_dopp_150219.wav,,,2,rating_t_initial.csv,t,initial,,,,,0,1,1,1,0,1,1,1,0,12,12,16,,,,,,1,1.52,121,001,2019_Mar_19_1330,test_run,3.0.6,60.00571938495792,
6,TTI,TTI_6_teg_150219.wav,,,2,rating_t_initial.csv,t,initial,,,,,0,1,1,1,0,1,1,1,0,13,13,5,,,,,,7,1.638,121,001,2019_Mar_19_1330,test_run,3.0.6,60.00571938495792,
24,TDI,TDI_24_daack_150219.wav,,,2,rating_t_initial.csv,t,initial,,,,,0,1,1,1,0,1,1,1,0,14,14,23,,,,,,1,1.021,121,001,2019_Mar_19_1330,test_run,3.0.6,60.00571938495792,
14,TTI,TTI_14_tok_150219.wav,,,2,rating_t_initial.csv,t,initial,,,,,0,1,1,1,0,1,1,1,0,15,15,13,,,,,,7,0.988,121,001,2019_Mar_19_1330,test_run,3.0.6,60.00571938495792,
11,TTI,TTI_11_tipp_150219.wav,,,2,rating_t_initial.csv,t,initial,,,,,0,1,1,1,0,1,1,1,0,16,16,10,,,,,,7,0.871,121,001,2019_Mar_19_1330,test_run,3.0.6,60.00571938495792,
18,TDI,TDI_18_dum_150219.wav,,,2,rating_t_initial.csv,t,initial,,,,,0,1,1,1,0,1,1,1,0,17,17,17,,,,,,1,1.805,121,001,2019_Mar_19_1330,test_run,3.0.6,60.00571938495792,
4,TTI,TTI_4_tam_150219.wav,,,2,rating_t_initial.csv,t,initial,,,,,0,1,1,1,0,1,1,1,0,18,18,3,,,,,,7,1.088,121,001,2019_Mar_19_1330,test_run,3.0.6,60.00571938495792,
13,TTI,TTI_13_tog_150219.wav,,,2,rating_t_initial.csv,t,initial,,,,,0,1,1,1,0,1,1,1,0,19,19,12,,,,,,7,0.954,121,001,2019_Mar_19_1330,test_run,3.0.6,60.00571938495792,
22,TDI,TDI_22_dy_150219.wav,,,2,rating_t_initial.csv,t,initial,,,,,0,1,1,1,0,1,1,1,0,20,20,21,,,,,,1,1.371,121,001,2019_Mar_19_1330,test_run,3.0.6,60.00571938495792,
10,TTI,TTI_10_titt_150219.wav,,,2,rating_t_initial.csv,t,initial,,,,,0,1,1,1,0,1,1,1,0,21,21,9,,,,,,7,1.571,121,001,2019_Mar_19_1330,test_run,3.0.6,60.00571938495792,
2,TTI,TTI_2_tagg_150219.wav,,,2,rating_t_initial.csv,t,initial,,,,,0,1,1,1,0,1,1,1,0,22,22,1,,,,,,6,3.004,121,001,2019_Mar_19_1330,test_run,3.0.6,60.00571938495792,
12,TTI,TTI_12_toa_150219.wav,,,2,rating_t_initial.csv,t,initial,,,,,0,1,1,1,0,1,1,1,0,23,23,11,,,,,,6,3.155,121,001,2019_Mar_19_1330,test_run,3.0.6,60.00571938495792,
5,TTI,TTI_5_tass_150219.wav,,,2,rating_t_initial.csv,t,initial,,,,,0,1,1,1,0,1,1,1,0,24,24,4,,,,,,4,6.371,121,001,2019_Mar_19_1330,test_run,3.0.6,60.00571938495792,
21,TDI,TDI_21_dugg_150219.wav,,,2,rating_t_initial.csv,t,initial,,,,,0,1,1,1,0,1,1,1,0,25,25,20,,,,,,3,4.571,121,001,2019_Mar_19_1330,test_run,3.0.6,60.00571938495792,
9,TTI,TTI_9_till_150219.wav,,,2,rating_t_initial.csv,t,initial,,,,,0,1,1,1,0,1,1,1,0,26,26,8,,,,,,7,0.855,121,001,2019_Mar_19_1330,test_run,3.0.6,60.00571938495792,
