item,item_cond,sound,corr_ans,group,block_id,listname,rating_for,position,trials.thisRepN,trials.thisTrialN,trials.thisN,trials.thisIndex,run_block_type.thisRepN,run_block_type.thisTrialN,run_block_type.thisN,run_block_type.thisIndex,routine.thisRepN,routine.thisTrialN,routine.thisN,routine.thisIndex,rating_trials.thisRepN,rating_trials.thisTrialN,rating_trials.thisN,rating_trials.thisIndex,key_resp_1.keys,key_resp_1.rt,key_resp_2.keys,key_resp_2.corr,key_resp_2.rt,rating_1.response,rating_1.rt,participant,session,date,expName,psychopyVersion,frameRate,
,,,,,,,,,,,,,,,,,,,,,,,,,space,17.20271515400964,,,,,,122,001,2019_Mar_20_1209,test_run,3.0.6,59.99755341524632,
158,ENW,ENW_68_presionar_150219.wav,n,c ,,,,,0,0,0,157,,,,,,,,,,,,,,,n,1,0.10252139199292287,,,122,001,2019_Mar_20_1209,test_run,3.0.6,59.99755341524632,
31,EFW,EFW_1_allmaan_070319.wav,j,c ,,,,,0,1,1,30,,,,,,,,,,,,,,,j,1,2.3522357290203217,,,122,001,2019_Mar_20_1209,test_run,3.0.6,59.99755341524632,
47,EFW,EFW_17_januari_070319.wav,j,c ,,,,,0,2,2,46,,,,,,,,,,,,,,,j,1,0.9670099949871656,,,122,001,2019_Mar_20_1209,test_run,3.0.6,59.99755341524632,
124,ENW,ENW_34_jomera_150219.wav,n,c ,,,,,0,3,3,123,,,,,,,,,,,,,,,n,1,1.2686019110260531,,,122,001,2019_Mar_20_1209,test_run,3.0.6,59.99755341524632,
33,EFW,EFW_3_familjen_070319.wav,j,c ,,,,,0,4,4,32,,,,,,,,,,,,,,,j,1,0.3019270180084277,,,122,001,2019_Mar_20_1209,test_run,3.0.6,59.99755341524632,
67,EFW,EFW_37_foervisso_070319.wav,j,c ,,,,,0,5,5,66,,,,,,,,,,,,,,,j,1,0.5855681690154597,,,122,001,2019_Mar_20_1209,test_run,3.0.6,59.99755341524632,
134,ENW,ENW_44_inlivna_150219.wav,n,c ,,,,,0,6,6,133,,,,,,,,,,,,,,,n,1,0.18549411100684665,,,122,001,2019_Mar_20_1209,test_run,3.0.6,59.99755341524632,
9,ECW,ECW_9_spinna_070319.wav,j,c ,,,,,0,7,7,8,,,,,,,,,,,,,,,j,1,0.6022854399925563,,,122,001,2019_Mar_20_1209,test_run,3.0.6,59.99755341524632,
98,ENW,ENW_8_haväras_150219.wav,n,c ,,,,,0,8,8,97,,,,,,,,,,,,,,,n,1,0.8523679540085141,,,122,001,2019_Mar_20_1209,test_run,3.0.6,59.99755341524632,
39,EFW,EFW_9_infektion_070319.wav,j,c ,,,,,0,9,9,38,,,,,,,,,,,,,,,j,1,0.4359181209874805,,,122,001,2019_Mar_20_1209,test_run,3.0.6,59.99755341524632,
71,EFW,EFW_41_infinna_070319.wav,j,c ,,,,,0,10,10,70,,,,,,,,,,,,,,,j,1,0.5003196109901182,,,122,001,2019_Mar_20_1209,test_run,3.0.6,59.99755341524632,
105,ENW,ENW_15_forfeckla_150219.wav,n,c ,,,,,0,11,11,104,,,,,,,,,,,,,,,n,1,0.6862034820078406,,,122,001,2019_Mar_20_1209,test_run,3.0.6,59.99755341524632,
160,ENW,ENW_70_roklarner_150219.wav,n,c ,,,,,0,12,12,159,,,,,,,,,,,,,,,n,1,0.7189481320092455,,,122,001,2019_Mar_20_1209,test_run,3.0.6,59.99755341524632,
135,ENW,ENW_45_fammoarens_150219.wav,n,c ,,,,,0,13,13,134,,,,,,,,,,,,,,,n,1,0.6193913850001991,,,122,001,2019_Mar_20_1209,test_run,3.0.6,59.99755341524632,
46,EFW,EFW_16_lyssna_070319.wav,j,c ,,,,,0,14,14,45,,,,,,,,,,,,,,,j,1,0.4357576940092258,,,122,001,2019_Mar_20_1209,test_run,3.0.6,59.99755341524632,
148,ENW,ENW_58_malvossa_150219.wav,n,c ,,,,,0,15,15,147,,,,,,,,,,,,,,,n,1,0.3696597149828449,,,122,001,2019_Mar_20_1209,test_run,3.0.6,59.99755341524632,
103,ENW,ENW_13_forvaron_150219.wav,n,c ,,,,,0,16,16,102,,,,,,,,,,,,,,,n,1,1.0854262970096897,,,122,001,2019_Mar_20_1209,test_run,3.0.6,59.99755341524632,
35,EFW,EFW_5_samhaalle_070319.wav,j,c ,,,,,0,17,17,34,,,,,,,,,,,,,,,j,1,0.5030969739891589,,,122,001,2019_Mar_20_1209,test_run,3.0.6,59.99755341524632,
64,EFW,EFW_34_sommar_070319.wav,j,c ,,,,,0,18,18,63,,,,,,,,,,,,,,,j,1,0.4690534030087292,,,122,001,2019_Mar_20_1209,test_run,3.0.6,59.99755341524632,
106,ENW,ENW_16_rolinkar_150219.wav,n,c ,,,,,0,19,19,105,,,,,,,,,,,,,,,n,1,0.5694150010240264,,,122,001,2019_Mar_20_1209,test_run,3.0.6,59.99755341524632,
127,ENW,ENW_37_spallrivet_150219.wav,n,c ,,,,,0,20,20,126,,,,,,,,,,,,,,,n,1,0.5520285610109568,,,122,001,2019_Mar_20_1209,test_run,3.0.6,59.99755341524632,
171,ENW,ENW_81_persifera_150219.wav,n,c ,,,,,0,21,21,170,,,,,,,,,,,,,,,j,0,0.9192041509959381,,,122,001,2019_Mar_20_1209,test_run,3.0.6,59.99755341524632,
51,EFW,EFW_21_varierar_070319.wav,j,c ,,,,,0,22,22,50,,,,,,,,,,,,,,,j,1,0.5025128160195891,,,122,001,2019_Mar_20_1209,test_run,3.0.6,59.99755341524632,
32,EFW,EFW_2_snarare_070319.wav,j,c ,,,,,0,23,23,31,,,,,,,,,,,,,,,j,1,2.452942128991708,,,122,001,2019_Mar_20_1209,test_run,3.0.6,59.99755341524632,
40,EFW,EFW_10_laarare_070319.wav,j,c ,,,,,0,24,24,39,,,,,,,,,,,,,,,j,1,0.46947978500975296,,,122,001,2019_Mar_20_1209,test_run,3.0.6,59.99755341524632,
50,EFW,EFW_20_fenomen_070319.wav,j,c ,,,,,0,25,25,49,,,,,,,,,,,,,,,j,1,0.5027127770008519,,,122,001,2019_Mar_20_1209,test_run,3.0.6,59.99755341524632,
146,ENW,ENW_56_lysskarna_150219.wav,n,c ,,,,,0,26,26,145,,,,,,,,,,,,,,,n,1,0.36880784897948615,,,122,001,2019_Mar_20_1209,test_run,3.0.6,59.99755341524632,
21,ECW,ECW_21_husera_070319.wav,j,c ,,,,,0,27,27,20,,,,,,,,,,,,,,,j,1,0.536325847991975,,,122,001,2019_Mar_20_1209,test_run,3.0.6,59.99755341524632,
25,ECW,ECW_25_oeverfoeras_070319.wav,j,c ,,,,,0,28,28,24,,,,,,,,,,,,,,,j,1,0.4693033470248338,,,122,001,2019_Mar_20_1209,test_run,3.0.6,59.99755341524632,
153,ENW,ENW_63_femyrisk_150219.wav,n,c ,,,,,0,29,29,152,,,,,,,,,,,,,,,n,1,0.41969121200963855,,,122,001,2019_Mar_20_1209,test_run,3.0.6,59.99755341524632,
119,ENW,ENW_29_uppskira_150219.wav,n,c ,,,,,0,30,30,118,,,,,,,,,,,,,,,n,1,0.9337230749952141,,,122,001,2019_Mar_20_1209,test_run,3.0.6,59.99755341524632,
56,EFW,EFW_26_armarna_070319.wav,j,c ,,,,,0,31,31,55,,,,,,,,,,,,,,,j,1,0.4864153499947861,,,122,001,2019_Mar_20_1209,test_run,3.0.6,59.99755341524632,
95,ENW,ENW_5_spoamisk_150219.wav,n,c ,,,,,0,32,32,94,,,,,,,,,,,,,,,n,1,0.436367304995656,,,122,001,2019_Mar_20_1209,test_run,3.0.6,59.99755341524632,
16,ECW,ECW_16_skinskalle_070319.wav,j,c ,,,,,0,33,33,15,,,,,,,,,,,,,,,j,1,0.5856424429803155,,,122,001,2019_Mar_20_1209,test_run,3.0.6,59.99755341524632,
38,EFW,EFW_8_samman_070319.wav,j,c ,,,,,0,34,34,37,,,,,,,,,,,,,,,j,1,0.5021149500098545,,,122,001,2019_Mar_20_1209,test_run,3.0.6,59.99755341524632,
169,ENW,ENW_79_lyxmare_150219.wav,n,c ,,,,,0,35,35,168,,,,,,,,,,,,,,,n,1,0.7672087030077819,,,122,001,2019_Mar_20_1209,test_run,3.0.6,59.99755341524632,
77,EFW,EFW_47_invoanare_070319.wav,j,c ,,,,,0,36,36,76,,,,,,,,,,,,,,,j,1,0.4526631199987605,,,122,001,2019_Mar_20_1209,test_run,3.0.6,59.99755341524632,
177,ENW,ENW_87_kloavare_150219.wav,n,c ,,,,,0,37,37,176,,,,,,,,,,,,,,,n,1,0.919644537003478,,,122,001,2019_Mar_20_1209,test_run,3.0.6,59.99755341524632,
78,EFW,EFW_48_varifroan_070319.wav,j,c ,,,,,0,38,38,77,,,,,,,,,,,,,,,j,1,0.6029148000234272,,,122,001,2019_Mar_20_1209,test_run,3.0.6,59.99755341524632,
138,ENW,ENW_48_skyjamsen_150219.wav,n,c ,,,,,0,39,39,137,,,,,,,,,,,,,,,n,1,0.5029588530014735,,,122,001,2019_Mar_20_1209,test_run,3.0.6,59.99755341524632,
22,ECW,ECW_22_anonyma_070319.wav,j,c ,,,,,0,40,40,21,,,,,,,,,,,,,,,j,1,2.1688483180187177,,,122,001,2019_Mar_20_1209,test_run,3.0.6,59.99755341524632,
150,ENW,ENW_60_lackpenar_150219.wav,n,c ,,,,,0,41,41,149,,,,,,,,,,,,,,,n,1,0.4364605210139416,,,122,001,2019_Mar_20_1209,test_run,3.0.6,59.99755341524632,
91,ENW,ENW_1_norsimerar_150219.wav,n,c ,,,,,0,42,42,90,,,,,,,,,,,,,,,n,1,0.6359482500120066,,,122,001,2019_Mar_20_1209,test_run,3.0.6,59.99755341524632,
144,ENW,ENW_54_lomering_150219.wav,n,c ,,,,,0,43,43,143,,,,,,,,,,,,,,,n,1,0.43555784501950257,,,122,001,2019_Mar_20_1209,test_run,3.0.6,59.99755341524632,
4,ECW,ECW_4_skraalla_070319.wav,j,c ,,,,,0,44,44,3,,,,,,,,,,,,,,,j,1,0.4025906470196787,,,122,001,2019_Mar_20_1209,test_run,3.0.6,59.99755341524632,
36,EFW,EFW_6_massa_070319.wav,j,c ,,,,,0,45,45,35,,,,,,,,,,,,,,,j,1,0.4020714479847811,,,122,001,2019_Mar_20_1209,test_run,3.0.6,59.99755341524632,
23,ECW,ECW_23_maximal_070319.wav,j,c ,,,,,0,46,46,22,,,,,,,,,,,,,,,j,1,0.2864788089937065,,,122,001,2019_Mar_20_1209,test_run,3.0.6,59.99755341524632,
74,EFW,EFW_44_ljusa_070319.wav,j,c ,,,,,0,47,47,73,,,,,,,,,,,,,,,j,1,0.6526364629971795,,,122,001,2019_Mar_20_1209,test_run,3.0.6,59.99755341524632,
166,ENW,ENW_76_omfläskor_150219.wav,n,c ,,,,,0,48,48,165,,,,,,,,,,,,,,,n,1,0.5856887169939,,,122,001,2019_Mar_20_1209,test_run,3.0.6,59.99755341524632,
3,ECW,ECW_3_virus_070319.wav,j,c ,,,,,0,49,49,2,,,,,,,,,,,,,,,j,1,0.3856518170214258,,,122,001,2019_Mar_20_1209,test_run,3.0.6,59.99755341524632,
41,EFW,EFW_11_maanniskor_070319.wav,j,c ,,,,,0,50,50,40,,,,,,,,,,,,,,,j,1,0.386336638010107,,,122,001,2019_Mar_20_1209,test_run,3.0.6,59.99755341524632,
72,EFW,EFW_42_naavaron_070319.wav,j,c ,,,,,0,51,51,71,,,,,,,,,,,,,,,j,1,1.6522659879992716,,,122,001,2019_Mar_20_1209,test_run,3.0.6,59.99755341524632,
53,EFW,EFW_23_aamne_070319.wav,j,c ,,,,,0,52,52,52,,,,,,,,,,,,,,,j,1,0.35212524500093423,,,122,001,2019_Mar_20_1209,test_run,3.0.6,59.99755341524632,
94,ENW,ENW_4_kyllfaren_150219.wav,n,c ,,,,,0,53,53,93,,,,,,,,,,,,,,,n,1,0.38582917899475433,,,122,001,2019_Mar_20_1209,test_run,3.0.6,59.99755341524632,
100,ENW,ENW_10_skinnamer_150219.wav,n,c ,,,,,0,54,54,99,,,,,,,,,,,,,,,n,1,0.5521076380100567,,,122,001,2019_Mar_20_1209,test_run,3.0.6,59.99755341524632,
97,ENW,ENW_7_flasera_150219.wav,n,c ,,,,,0,55,55,96,,,,,,,,,,,,,,,n,1,1.1336527320090681,,,122,001,2019_Mar_20_1209,test_run,3.0.6,59.99755341524632,
89,EFW,EFW_59_filosofin_070319.wav,j,c ,,,,,0,56,56,88,,,,,,,,,,,,,,,j,1,0.48581057699630037,,,122,001,2019_Mar_20_1209,test_run,3.0.6,59.99755341524632,
154,ENW,ENW_64_havskvare_150219.wav,n,c ,,,,,0,57,57,153,,,,,,,,,,,,,,,n,1,0.40234947999124415,,,122,001,2019_Mar_20_1209,test_run,3.0.6,59.99755341524632,
145,ENW,ENW_55_invaskin_150219.wav,n,c ,,,,,0,58,58,144,,,,,,,,,,,,,,,n,1,0.48553571398952045,,,122,001,2019_Mar_20_1209,test_run,3.0.6,59.99755341524632,
79,EFW,EFW_49_vaasen_070319.wav,j,c ,,,,,0,59,59,78,,,,,,,,,,,,,,,j,1,0.7856634370109532,,,122,001,2019_Mar_20_1209,test_run,3.0.6,59.99755341524632,
68,EFW,EFW_38_foerefoell_070319.wav,j,c ,,,,,0,60,60,67,,,,,,,,,,,,,,,j,1,0.4030109900049865,,,122,001,2019_Mar_20_1209,test_run,3.0.6,59.99755341524632,
92,ENW,ENW_2_overralka_150219.wav,n,c ,,,,,0,61,61,91,,,,,,,,,,,,,,,n,1,0.38619252800708637,,,122,001,2019_Mar_20_1209,test_run,3.0.6,59.99755341524632,
70,EFW,EFW_40_miljoner_070319.wav,j,c ,,,,,0,62,62,69,,,,,,,,,,,,,,,j,1,0.002169401996070519,,,122,001,2019_Mar_20_1209,test_run,3.0.6,59.99755341524632,
27,ECW,ECW_27_panorama_070319.wav,j,c ,,,,,0,63,63,26,,,,,,,,,,,,,,,j,1,2.2170932900044136,,,122,001,2019_Mar_20_1209,test_run,3.0.6,59.99755341524632,
126,ENW,ENW_36_skymlosa_150219.wav,n,c ,,,,,0,64,64,125,,,,,,,,,,,,,,,n,1,0.13629411900183186,,,122,001,2019_Mar_20_1209,test_run,3.0.6,59.99755341524632,
170,ENW,ENW_80_tjarfera_150219.wav,n,c ,,,,,0,65,65,169,,,,,,,,,,,,,,,n,1,0.26947443999233656,,,122,001,2019_Mar_20_1209,test_run,3.0.6,59.99755341524632,
116,ENW,ENW_26_anufera_150219.wav,n,c ,,,,,0,66,66,115,,,,,,,,,,,,,,,n,1,0.40248520800378174,,,122,001,2019_Mar_20_1209,test_run,3.0.6,59.99755341524632,
99,ENW,ENW_9_samlemor_150219.wav,n,c ,,,,,0,67,67,98,,,,,,,,,,,,,,,n,1,0.7358293840079568,,,122,001,2019_Mar_20_1209,test_run,3.0.6,59.99755341524632,
147,ENW,ENW_57_flovanning_150219.wav,n,c ,,,,,0,68,68,146,,,,,,,,,,,,,,,n,1,1.0188871250138618,,,122,001,2019_Mar_20_1209,test_run,3.0.6,59.99755341524632,
110,ENW,ENW_20_invonen_150219.wav,n,c ,,,,,0,69,69,109,,,,,,,,,,,,,,,n,1,0.6856761070084758,,,122,001,2019_Mar_20_1209,test_run,3.0.6,59.99755341524632,
18,ECW,ECW_18_morkulla_070319.wav,j,c ,,,,,0,70,70,17,,,,,,,,,,,,,,,n,0,2.985529597994173,,,122,001,2019_Mar_20_1209,test_run,3.0.6,59.99755341524632,
137,ENW,ENW_47_oafläppen_150219.wav,n,c ,,,,,0,71,71,136,,,,,,,,,,,,,,,n,1,1.2358261230110656,,,122,001,2019_Mar_20_1209,test_run,3.0.6,59.99755341524632,
29,ECW,ECW_29_mejerier_070319.wav,j,c ,,,,,0,72,72,28,,,,,,,,,,,,,,,j,1,0.3530960759962909,,,122,001,2019_Mar_20_1209,test_run,3.0.6,59.99755341524632,
19,ECW,ECW_19_persiska_070319.wav,j,c ,,,,,0,73,73,18,,,,,,,,,,,,,,,j,1,0.28629128498141654,,,122,001,2019_Mar_20_1209,test_run,3.0.6,59.99755341524632,
83,EFW,EFW_53_sovrum_070319.wav,j,c ,,,,,0,74,74,82,,,,,,,,,,,,,,,j,1,0.5028617840143852,,,122,001,2019_Mar_20_1209,test_run,3.0.6,59.99755341524632,
159,ENW,ENW_69_mjohusa_150219.wav,n,c ,,,,,0,75,75,158,,,,,,,,,,,,,,,n,1,0.4024278880096972,,,122,001,2019_Mar_20_1209,test_run,3.0.6,59.99755341524632,
172,ENW,ENW_82_värskappa_150219.wav,n,c ,,,,,0,76,76,171,,,,,,,,,,,,,,,n,1,0.7690767449967097,,,122,001,2019_Mar_20_1209,test_run,3.0.6,59.99755341524632,
111,ENW,ENW_21_tjulning_150219.wav,n,c ,,,,,0,77,77,110,,,,,,,,,,,,,,,j,0,1.8360530440113507,,,122,001,2019_Mar_20_1209,test_run,3.0.6,59.99755341524632,
88,EFW,EFW_58_examen_070319.wav,j,c ,,,,,0,78,78,87,,,,,,,,,,,,,,,j,1,0.30256452297908254,,,122,001,2019_Mar_20_1209,test_run,3.0.6,59.99755341524632,
102,ENW,ENW_12_snälmola_150219.wav,n,c ,,,,,0,79,79,101,,,,,,,,,,,,,,,n,1,0.38573815298150294,,,122,001,2019_Mar_20_1209,test_run,3.0.6,59.99755341524632,
122,ENW,ENW_32_fonering_150219.wav,n,c ,,,,,0,80,80,121,,,,,,,,,,,,,,,n,1,0.5004516689805314,,,122,001,2019_Mar_20_1209,test_run,3.0.6,59.99755341524632,
178,ENW,ENW_88_marsifen_150219.wav,n,c ,,,,,0,81,81,177,,,,,,,,,,,,,,,n,1,0.28607716999249533,,,122,001,2019_Mar_20_1209,test_run,3.0.6,59.99755341524632,
107,ENW,ENW_17_kopynnor_150219.wav,n,c ,,,,,0,82,82,106,,,,,,,,,,,,,,,n,1,1.9193419590010308,,,122,001,2019_Mar_20_1209,test_run,3.0.6,59.99755341524632,
45,EFW,EFW_15_oeverens_070319.wav,j,c ,,,,,0,83,83,44,,,,,,,,,,,,,,,j,1,0.3863463499874342,,,122,001,2019_Mar_20_1209,test_run,3.0.6,59.99755341524632,
179,ENW,ENW_89_mikenspoan_150219.wav,n,c ,,,,,0,84,84,178,,,,,,,,,,,,,,,n,1,0.4523069089918863,,,122,001,2019_Mar_20_1209,test_run,3.0.6,59.99755341524632,
34,EFW,EFW_4_foerminska_070319.wav,j,c ,,,,,0,85,85,33,,,,,,,,,,,,,,,j,1,0.13559941301355138,,,122,001,2019_Mar_20_1209,test_run,3.0.6,59.99755341524632,
59,EFW,EFW_29_formen_070319.wav,j,c ,,,,,0,86,86,58,,,,,,,,,,,,,,,j,1,0.28381667600478977,,,122,001,2019_Mar_20_1209,test_run,3.0.6,59.99755341524632,
115,ENW,ENW_25_affierar_150219.wav,n,c ,,,,,0,87,87,114,,,,,,,,,,,,,,,n,1,0.11937119500362314,,,122,001,2019_Mar_20_1209,test_run,3.0.6,59.99755341524632,
136,ENW,ENW_46_pommera_150219.wav,n,c ,,,,,0,88,88,135,,,,,,,,,,,,,,,n,1,0.25313295499654487,,,122,001,2019_Mar_20_1209,test_run,3.0.6,59.99755341524632,
81,EFW,EFW_51_seminarier_070319.wav,j,c ,,,,,0,89,89,80,,,,,,,,,,,,,,,j,1,0.13600158400367945,,,122,001,2019_Mar_20_1209,test_run,3.0.6,59.99755341524632,
75,EFW,EFW_45_innanfoer_070319.wav,j,c ,,,,,0,90,90,74,,,,,,,,,,,,,,,j,1,0.7026815069839358,,,122,001,2019_Mar_20_1209,test_run,3.0.6,59.99755341524632,
58,EFW,EFW_28_olja_070319.wav,j,c ,,,,,0,91,91,57,,,,,,,,,,,,,,,j,1,0.15055367999593727,,,122,001,2019_Mar_20_1209,test_run,3.0.6,59.99755341524632,
6,ECW,ECW_6_sila_070319.wav,j,c ,,,,,0,92,92,5,,,,,,,,,,,,,,,n,0,0.1531305929820519,,,122,001,2019_Mar_20_1209,test_run,3.0.6,59.99755341524632,
123,ENW,ENW_33_froamation_150219.wav,n,c ,,,,,0,93,93,122,,,,,,,,,,,,,,,j,0,0.4526694050000515,,,122,001,2019_Mar_20_1209,test_run,3.0.6,59.99755341524632,
162,ENW,ENW_72_urskecken_150219.wav,n,c ,,,,,0,94,94,161,,,,,,,,,,,,,,,n,1,0.2693422859883867,,,122,001,2019_Mar_20_1209,test_run,3.0.6,59.99755341524632,
11,ECW,ECW_11_foersoeka_070319.wav,j,c ,,,,,0,95,95,10,,,,,,,,,,,,,,,j,1,0.08554500798345543,,,122,001,2019_Mar_20_1209,test_run,3.0.6,59.99755341524632,
48,EFW,EFW_18_nummer_070319.wav,j,c ,,,,,0,96,96,47,,,,,,,,,,,,,,,j,1,0.2192440629878547,,,122,001,2019_Mar_20_1209,test_run,3.0.6,59.99755341524632,
125,ENW,ENW_35_nymaljen_150219.wav,n,c ,,,,,0,97,97,124,,,,,,,,,,,,,,,n,1,0.35257213001023047,,,122,001,2019_Mar_20_1209,test_run,3.0.6,59.99755341524632,
176,ENW,ENW_86_heloppsin_150219.wav,n,c ,,,,,0,98,98,175,,,,,,,,,,,,,,,n,1,0.28551562799839303,,,122,001,2019_Mar_20_1209,test_run,3.0.6,59.99755341524632,
49,EFW,EFW_19_roerelse_070319.wav,j,c ,,,,,0,99,99,48,,,,,,,,,,,,,,,j,1,0.636070150998421,,,122,001,2019_Mar_20_1209,test_run,3.0.6,59.99755341524632,
43,EFW,EFW_13_elever_070319.wav,j,c ,,,,,0,100,100,42,,,,,,,,,,,,,,,j,1,0.3003961319918744,,,122,001,2019_Mar_20_1209,test_run,3.0.6,59.99755341524632,
155,ENW,ENW_65_hamfylla_150219.wav,n,c ,,,,,0,101,101,154,,,,,,,,,,,,,,,n,1,0.4020826290070545,,,122,001,2019_Mar_20_1209,test_run,3.0.6,59.99755341524632,
156,ENW,ENW_66_voarsmenar_150219.wav,n,c ,,,,,0,102,102,155,,,,,,,,,,,,,,,n,1,0.15277502601384185,,,122,001,2019_Mar_20_1209,test_run,3.0.6,59.99755341524632,
112,ENW,ENW_22_fjäserna_150219.wav,n,c ,,,,,0,103,103,111,,,,,,,,,,,,,,,n,1,0.28588445601053536,,,122,001,2019_Mar_20_1209,test_run,3.0.6,59.99755341524632,
113,ENW,ENW_23_allsänning_150219.wav,n,c ,,,,,0,104,104,112,,,,,,,,,,,,,,,n,1,0.26874968301854096,,,122,001,2019_Mar_20_1209,test_run,3.0.6,59.99755341524632,
52,EFW,EFW_22_normala_070319.wav,j,c ,,,,,0,105,105,51,,,,,,,,,,,,,,,j,1,0.25050367999938317,,,122,001,2019_Mar_20_1209,test_run,3.0.6,59.99755341524632,
86,EFW,EFW_56_mormor_070319.wav,j,c ,,,,,0,106,106,85,,,,,,,,,,,,,,,j,1,0.30257059799623676,,,122,001,2019_Mar_20_1209,test_run,3.0.6,59.99755341524632,
161,ENW,ENW_71_forskäckla_150219.wav,n,c ,,,,,0,107,107,160,,,,,,,,,,,,,,,n,1,0.35212280799169093,,,122,001,2019_Mar_20_1209,test_run,3.0.6,59.99755341524632,
80,EFW,EFW_50_snaalla_070319.wav,j,c ,,,,,0,108,108,79,,,,,,,,,,,,,,,j,1,0.6855636279797181,,,122,001,2019_Mar_20_1209,test_run,3.0.6,59.99755341524632,
93,ENW,ENW_3_vissorens_150219.wav,n,c ,,,,,0,109,109,92,,,,,,,,,,,,,,,n,1,0.4198409550008364,,,122,001,2019_Mar_20_1209,test_run,3.0.6,59.99755341524632,
1,ECW,ECW_1_anka_070319.wav,j,c ,,,,,0,110,110,0,,,,,,,,,,,,,,,j,1,0.2030443619878497,,,122,001,2019_Mar_20_1209,test_run,3.0.6,59.99755341524632,
69,EFW,EFW_39_foersvara_070319.wav,j,c ,,,,,0,111,111,68,,,,,,,,,,,,,,,j,1,0.2696113499987405,,,122,001,2019_Mar_20_1209,test_run,3.0.6,59.99755341524632,
44,EFW,EFW_14_foersoeken_070319.wav,j,c ,,,,,0,112,112,43,,,,,,,,,,,,,,,j,1,0.2688685040047858,,,122,001,2019_Mar_20_1209,test_run,3.0.6,59.99755341524632,
14,ECW,ECW_14_excellens_070319.wav,j,c ,,,,,0,113,113,13,,,,,,,,,,,,,,,j,1,0.5688749949913472,,,122,001,2019_Mar_20_1209,test_run,3.0.6,59.99755341524632,
60,EFW,EFW_30_officiella_070319.wav,j,c ,,,,,0,114,114,59,,,,,,,,,,,,,,,j,1,0.43641844001831487,,,122,001,2019_Mar_20_1209,test_run,3.0.6,59.99755341524632,
5,ECW,ECW_5_kamma_070319.wav,j,c ,,,,,0,115,115,4,,,,,,,,,,,,,,,n,0,0.4686361640051473,,,122,001,2019_Mar_20_1209,test_run,3.0.6,59.99755341524632,
149,ENW,ENW_59_kyrkmänning_150219.wav,n,c ,,,,,0,116,116,148,,,,,,,,,,,,,,,n,1,0.9360344809829257,,,122,001,2019_Mar_20_1209,test_run,3.0.6,59.99755341524632,
55,EFW,EFW_25_informera_070319.wav,j,c ,,,,,0,117,117,54,,,,,,,,,,,,,,,j,1,0.2521843280119356,,,122,001,2019_Mar_20_1209,test_run,3.0.6,59.99755341524632,
117,ENW,ENW_27_lyssvinner_150219.wav,n,c ,,,,,0,118,118,116,,,,,,,,,,,,,,,n,1,0.3671278660185635,,,122,001,2019_Mar_20_1209,test_run,3.0.6,59.99755341524632,
128,ENW,ENW_38_roakanier_150219.wav,n,c ,,,,,0,119,119,127,,,,,,,,,,,,,,,n,1,1.086148596019484,,,122,001,2019_Mar_20_1209,test_run,3.0.6,59.99755341524632,
13,ECW,ECW_13_kanonform_070319.wav,j,c ,,,,,0,120,120,12,,,,,,,,,,,,,,,j,1,0.31899165600771084,,,122,001,2019_Mar_20_1209,test_run,3.0.6,59.99755341524632,
104,ENW,ENW_14_kärmenor_150219.wav,n,c ,,,,,0,121,121,103,,,,,,,,,,,,,,,n,1,0.3524433160200715,,,122,001,2019_Mar_20_1209,test_run,3.0.6,59.99755341524632,
143,ENW,ENW_53_svarmvisso_150219.wav,n,c ,,,,,0,122,122,142,,,,,,,,,,,,,,,n,1,0.319369132979773,,,122,001,2019_Mar_20_1209,test_run,3.0.6,59.99755341524632,
151,ENW,ENW_61_myckskina_150219.wav,n,c ,,,,,0,123,123,150,,,,,,,,,,,,,,,n,1,0.28391856199596077,,,122,001,2019_Mar_20_1209,test_run,3.0.6,59.99755341524632,
118,ENW,ENW_28_läkermask_150219.wav,n,c ,,,,,0,124,124,117,,,,,,,,,,,,,,,n,1,0.43554649699945003,,,122,001,2019_Mar_20_1209,test_run,3.0.6,59.99755341524632,
15,ECW,ECW_15_tjuvarna_070319.wav,j,c ,,,,,0,125,125,14,,,,,,,,,,,,,,,j,1,0.2533752149902284,,,122,001,2019_Mar_20_1209,test_run,3.0.6,59.99755341524632,
133,ENW,ENW_43_axalän_150219.wav,n,c ,,,,,0,126,126,132,,,,,,,,,,,,,,,n,1,0.35261533901211806,,,122,001,2019_Mar_20_1209,test_run,3.0.6,59.99755341524632,
173,ENW,ENW_83_fyrskovar_150219.wav,n,c ,,,,,0,127,127,172,,,,,,,,,,,,,,,n,1,0.26982966999639757,,,122,001,2019_Mar_20_1209,test_run,3.0.6,59.99755341524632,
141,ENW,ENW_51_skillare_150219.wav,n,c ,,,,,0,128,128,140,,,,,,,,,,,,,,,n,1,0.2524180609907489,,,122,001,2019_Mar_20_1209,test_run,3.0.6,59.99755341524632,
37,EFW,EFW_7_sociala_070319.wav,j,c ,,,,,0,129,129,36,,,,,,,,,,,,,,,j,1,0.3194024399854243,,,122,001,2019_Mar_20_1209,test_run,3.0.6,59.99755341524632,
130,ENW,ENW_40_knipackar_150219.wav,n,c ,,,,,0,130,130,129,,,,,,,,,,,,,,,n,1,0.6190898089844268,,,122,001,2019_Mar_20_1209,test_run,3.0.6,59.99755341524632,
142,ENW,ENW_52_filofyll_150219.wav,n,c ,,,,,0,131,131,141,,,,,,,,,,,,,,,n,1,0.5690437710145488,,,122,001,2019_Mar_20_1209,test_run,3.0.6,59.99755341524632,
28,ECW,ECW_28_maskinerna_070319.wav,j,c ,,,,,0,132,132,27,,,,,,,,,,,,,,,j,1,0.2191927450185176,,,122,001,2019_Mar_20_1209,test_run,3.0.6,59.99755341524632,
132,ENW,ENW_42_hamsforing_150219.wav,n,c ,,,,,0,133,133,131,,,,,,,,,,,,,,,n,1,0.2530168099910952,,,122,001,2019_Mar_20_1209,test_run,3.0.6,59.99755341524632,
2,ECW,ECW_2_hinna_070319.wav,j,c ,,,,,0,134,134,1,,,,,,,,,,,,,,,j,1,0.30268307801452465,,,122,001,2019_Mar_20_1209,test_run,3.0.6,59.99755341524632,
61,EFW,EFW_31_jaamfoera_070319.wav,j,c ,,,,,0,135,135,60,,,,,,,,,,,,,,,j,1,0.36919014499289915,,,122,001,2019_Mar_20_1209,test_run,3.0.6,59.99755341524632,
12,ECW,ECW_12_moehippa_070319.wav,j,c ,,,,,0,136,136,11,,,,,,,,,,,,,,,j,1,0.2696677960047964,,,122,001,2019_Mar_20_1209,test_run,3.0.6,59.99755341524632,
164,ENW,ENW_74_malsera_150219.wav,n,c ,,,,,0,137,137,163,,,,,,,,,,,,,,,n,1,0.3029884849966038,,,122,001,2019_Mar_20_1209,test_run,3.0.6,59.99755341524632,
109,ENW,ENW_19_morloren_150219.wav,n,c ,,,,,0,138,138,108,,,,,,,,,,,,,,,n,1,0.2855629039986525,,,122,001,2019_Mar_20_1209,test_run,3.0.6,59.99755341524632,
157,ENW,ENW_67_oafreskar_150219.wav,n,c ,,,,,0,139,139,156,,,,,,,,,,,,,,,n,1,0.3522515359800309,,,122,001,2019_Mar_20_1209,test_run,3.0.6,59.99755341524632,
26,ECW,ECW_26_kroenikoeren_070319.wav,j,c ,,,,,0,140,140,25,,,,,,,,,,,,,,,j,1,0.36910146902664565,,,122,001,2019_Mar_20_1209,test_run,3.0.6,59.99755341524632,
96,ENW,ENW_6_vilfroaser_150219.wav,n,c ,,,,,0,141,141,95,,,,,,,,,,,,,,,n,1,0.2855868889892008,,,122,001,2019_Mar_20_1209,test_run,3.0.6,59.99755341524632,
8,ECW,ECW_8_fryshus_070319.wav,j,c ,,,,,0,142,142,7,,,,,,,,,,,,,,,n,0,0.3354822710098233,,,122,001,2019_Mar_20_1209,test_run,3.0.6,59.99755341524632,
174,ENW,ENW_84_hurmarna_150219.wav,n,c ,,,,,0,143,143,173,,,,,,,,,,,,,,,n,1,0.30280943401157856,,,122,001,2019_Mar_20_1209,test_run,3.0.6,59.99755341524632,
163,ENW,ENW_73_vimmankalla_150219.wav,n,c ,,,,,0,144,144,162,,,,,,,,,,,,,,,n,1,0.41957547899801284,,,122,001,2019_Mar_20_1209,test_run,3.0.6,59.99755341524632,
66,EFW,EFW_36_haarifroan_070319.wav,j,c ,,,,,0,145,145,65,,,,,,,,,,,,,,,j,1,0.3858871679985896,,,122,001,2019_Mar_20_1209,test_run,3.0.6,59.99755341524632,
87,EFW,EFW_57_loenerna_070319.wav,j,c ,,,,,0,146,146,86,,,,,,,,,,,,,,,j,1,0.2865679859824013,,,122,001,2019_Mar_20_1209,test_run,3.0.6,59.99755341524632,
10,ECW,ECW_10_flisa_070319.wav,j,c ,,,,,0,147,147,9,,,,,,,,,,,,,,,j,1,0.26948382100090384,,,122,001,2019_Mar_20_1209,test_run,3.0.6,59.99755341524632,
168,ENW,ENW_78_morvinder_150219.wav,n,c ,,,,,0,148,148,167,,,,,,,,,,,,,,,n,1,0.33577855600742623,,,122,001,2019_Mar_20_1209,test_run,3.0.6,59.99755341524632,
24,ECW,ECW_24_fysiker_070319.wav,j,c ,,,,,0,149,149,23,,,,,,,,,,,,,,,j,1,0.2530540429870598,,,122,001,2019_Mar_20_1209,test_run,3.0.6,59.99755341524632,
63,EFW,EFW_33_elva_070319.wav,j,c ,,,,,0,150,150,62,,,,,,,,,,,,,,,j,1,0.30264399701263756,,,122,001,2019_Mar_20_1209,test_run,3.0.6,59.99755341524632,
139,ENW,ENW_49_hälskrena_150219.wav,n,c ,,,,,0,151,151,138,,,,,,,,,,,,,,,n,1,0.3195261779765133,,,122,001,2019_Mar_20_1209,test_run,3.0.6,59.99755341524632,
140,ENW,ENW_50_omsänare_150219.wav,n,c ,,,,,0,152,152,139,,,,,,,,,,,,,,,n,1,0.25240962498355657,,,122,001,2019_Mar_20_1209,test_run,3.0.6,59.99755341524632,
17,ECW,ECW_17_majonnaas_070319.wav,j,c ,,,,,0,153,153,16,,,,,,,,,,,,,,,j,1,0.35244010598398745,,,122,001,2019_Mar_20_1209,test_run,3.0.6,59.99755341524632,
54,EFW,EFW_24_foersvinner_070319.wav,j,c ,,,,,0,154,154,53,,,,,,,,,,,,,,,j,1,0.2695712620043196,,,122,001,2019_Mar_20_1209,test_run,3.0.6,59.99755341524632,
90,EFW,EFW_60_insulin_070319.wav,j,c ,,,,,0,155,155,89,,,,,,,,,,,,,,,j,1,0.16901251100352965,,,122,001,2019_Mar_20_1209,test_run,3.0.6,59.99755341524632,
108,ENW,ENW_18_moalursena_150219.wav,n,c ,,,,,0,156,156,107,,,,,,,,,,,,,,,n,1,0.3363341360236518,,,122,001,2019_Mar_20_1209,test_run,3.0.6,59.99755341524632,
85,EFW,EFW_55_oroar_070319.wav,j,c ,,,,,0,157,157,84,,,,,,,,,,,,,,,j,1,0.31956847399123944,,,122,001,2019_Mar_20_1209,test_run,3.0.6,59.99755341524632,
131,ENW,ENW_41_vessmaren_150219.wav,n,c ,,,,,0,158,158,130,,,,,,,,,,,,,,,n,1,0.3195031709910836,,,122,001,2019_Mar_20_1209,test_run,3.0.6,59.99755341524632,
175,ENW,ENW_85_forlinna_150219.wav,n,c ,,,,,0,159,159,174,,,,,,,,,,,,,,,n,1,0.30208875000244007,,,122,001,2019_Mar_20_1209,test_run,3.0.6,59.99755341524632,
165,ENW,ENW_75_foarskining_150219.wav,n,c ,,,,,0,160,160,164,,,,,,,,,,,,,,,n,1,1.3857831860077567,,,122,001,2019_Mar_20_1209,test_run,3.0.6,59.99755341524632,
20,ECW,ECW_20_sommarspel_070319.wav,j,c ,,,,,0,161,161,19,,,,,,,,,,,,,,,j,1,0.3862955229997169,,,122,001,2019_Mar_20_1209,test_run,3.0.6,59.99755341524632,
57,EFW,EFW_27_analysera_070319.wav,j,c ,,,,,0,162,162,56,,,,,,,,,,,,,,,j,1,1.5692369049938861,,,122,001,2019_Mar_20_1209,test_run,3.0.6,59.99755341524632,
62,EFW,EFW_32_fyller_070319.wav,j,c ,,,,,0,163,163,61,,,,,,,,,,,,,,,n,0,1.0355616630113218,,,122,001,2019_Mar_20_1209,test_run,3.0.6,59.99755341524632,
65,EFW,EFW_35_affaarer_070319.wav,j,c ,,,,,0,164,164,64,,,,,,,,,,,,,,,j,1,1.3529489499924239,,,122,001,2019_Mar_20_1209,test_run,3.0.6,59.99755341524632,
30,ECW,ECW_30_recensioner_070319.wav,j,c ,,,,,0,165,165,29,,,,,,,,,,,,,,,j,1,0.20238142198650166,,,122,001,2019_Mar_20_1209,test_run,3.0.6,59.99755341524632,
7,ECW,ECW_7_marin_070319.wav,j,c ,,,,,0,166,166,6,,,,,,,,,,,,,,,j,1,0.23632758200983517,,,122,001,2019_Mar_20_1209,test_run,3.0.6,59.99755341524632,
121,ENW,ENW_31_romation_150219.wav,n,c ,,,,,0,167,167,120,,,,,,,,,,,,,,,n,1,0.5357621000148356,,,122,001,2019_Mar_20_1209,test_run,3.0.6,59.99755341524632,
82,EFW,EFW_52_framhoalla_070319.wav,j,c ,,,,,0,168,168,81,,,,,,,,,,,,,,,j,1,0.4196710849937517,,,122,001,2019_Mar_20_1209,test_run,3.0.6,59.99755341524632,
84,EFW,EFW_54_romaner_070319.wav,j,c ,,,,,0,169,169,83,,,,,,,,,,,,,,,j,1,0.25200325800688006,,,122,001,2019_Mar_20_1209,test_run,3.0.6,59.99755341524632,
167,ENW,ENW_77_somfera_150219.wav,n,c ,,,,,0,170,170,166,,,,,,,,,,,,,,,n,1,1.8526351010077633,,,122,001,2019_Mar_20_1209,test_run,3.0.6,59.99755341524632,
152,ENW,ENW_62_ljullepilja_150219.wav,n,c ,,,,,0,171,171,151,,,,,,,,,,,,,,,n,1,1.352722873998573,,,122,001,2019_Mar_20_1209,test_run,3.0.6,59.99755341524632,
120,ENW,ENW_30_sojera_150219.wav,n,c ,,,,,0,172,172,119,,,,,,,,,,,,,,,n,1,0.4689843330124859,,,122,001,2019_Mar_20_1209,test_run,3.0.6,59.99755341524632,
73,EFW,EFW_43_halvoar_070319.wav,j,c ,,,,,0,173,173,72,,,,,,,,,,,,,,,n,0,0.48604006599634886,,,122,001,2019_Mar_20_1209,test_run,3.0.6,59.99755341524632,
129,ENW,ENW_39_ljusonar_150219.wav,n,c ,,,,,0,174,174,128,,,,,,,,,,,,,,,n,1,0.36904294599662535,,,122,001,2019_Mar_20_1209,test_run,3.0.6,59.99755341524632,
101,ENW,ENW_11_fränna_150219.wav,n,c ,,,,,0,175,175,100,,,,,,,,,,,,,,,n,1,0.38604213800863363,,,122,001,2019_Mar_20_1209,test_run,3.0.6,59.99755341524632,
114,ENW,ENW_24_samjoner_150219.wav,n,c ,,,,,0,176,176,113,,,,,,,,,,,,,,,n,1,0.25295738398563117,,,122,001,2019_Mar_20_1209,test_run,3.0.6,59.99755341524632,
180,ENW,ENW_90_skrivinar_150219.wav,n,c ,,,,,0,177,177,179,,,,,,,,,,,,,,,n,1,0.25216203500167467,,,122,001,2019_Mar_20_1209,test_run,3.0.6,59.99755341524632,
76,EFW,EFW_46_foerhoer_070319.wav,j,c ,,,,,0,178,178,75,,,,,,,,,,,,,,,j,1,0.25213158200494945,,,122,001,2019_Mar_20_1209,test_run,3.0.6,59.99755341524632,
42,EFW,EFW_12_foeremoal_070319.wav,j,c ,,,,,0,179,179,41,,,,,,,,,,,,,,,j,1,0.18605321901850402,,,122,001,2019_Mar_20_1209,test_run,3.0.6,59.99755341524632,
26,TTF,TTF_26_rymt_070319.wav,,,1,rating_d_final.csv,d,final,,,,,0,0,0,0,0,0,0,0,0,0,0,25,,,,,,3,11.922,122,001,2019_Mar_20_1209,test_run,3.0.6,59.99755341524632,
5,TDF,TDF_5_voad_070319.wav,,,1,rating_d_final.csv,d,final,,,,,0,0,0,0,0,0,0,0,0,1,1,4,,,,,,5,2.188,122,001,2019_Mar_20_1209,test_run,3.0.6,59.99755341524632,
31,TTF,TTF_31_brott_070319.wav,,,1,rating_d_final.csv,d,final,,,,,0,0,0,0,0,0,0,0,0,2,2,30,,,,,,6,2.438,122,001,2019_Mar_20_1209,test_run,3.0.6,59.99755341524632,
4,TDF,TDF_4_rod_070319.wav,,,1,rating_d_final.csv,d,final,,,,,0,0,0,0,0,0,0,0,0,3,3,3,,,,,,5,1.854,122,001,2019_Mar_20_1209,test_run,3.0.6,59.99755341524632,
20,TTF,TTF_20_got_070319.wav,,,1,rating_d_final.csv,d,final,,,,,0,0,0,0,0,0,0,0,0,4,4,19,,,,,,2,1.437,122,001,2019_Mar_20_1209,test_run,3.0.6,59.99755341524632,
15,TDF,TDF_15_nod_070319.wav,,,1,rating_d_final.csv,d,final,,,,,0,0,0,0,0,0,0,0,0,5,5,14,,,,,,2,1.304,122,001,2019_Mar_20_1209,test_run,3.0.6,59.99755341524632,
25,TTF,TTF_25_synt_070319.wav,,,1,rating_d_final.csv,d,final,,,,,0,0,0,0,0,0,0,0,0,6,6,24,,,,,,4,4.42,122,001,2019_Mar_20_1209,test_run,3.0.6,59.99755341524632,
10,TDF,TDF_10_brod_070319.wav,,,1,rating_d_final.csv,d,final,,,,,0,0,0,0,0,0,0,0,0,7,7,9,,,,,,6,0.737,122,001,2019_Mar_20_1209,test_run,3.0.6,59.99755341524632,
17,TTF,TTF_17_sket_070319.wav,,,1,rating_d_final.csv,d,final,,,,,0,0,0,0,0,0,0,0,0,8,8,16,,,,,,6,1.088,122,001,2019_Mar_20_1209,test_run,3.0.6,59.99755341524632,
7,TDF,TDF_7_vid_070319.wav,,,1,rating_d_final.csv,d,final,,,,,0,0,0,0,0,0,0,0,0,9,9,6,,,,,,7,1.07,122,001,2019_Mar_20_1209,test_run,3.0.6,59.99755341524632,
3,TDF,TDF_3_raad_070319.wav,,,1,rating_d_final.csv,d,final,,,,,0,0,0,0,0,0,0,0,0,10,10,2,,,,,,5,6.521,122,001,2019_Mar_20_1209,test_run,3.0.6,59.99755341524632,
29,TTF,TTF_29_bett_070319.wav,,,1,rating_d_final.csv,d,final,,,,,0,0,0,0,0,0,0,0,0,11,11,28,,,,,,5,1.453,122,001,2019_Mar_20_1209,test_run,3.0.6,59.99755341524632,
22,TTF,TTF_22_het_070319.wav,,,1,rating_d_final.csv,d,final,,,,,0,0,0,0,0,0,0,0,0,12,12,21,,,,,,7,1.371,122,001,2019_Mar_20_1209,test_run,3.0.6,59.99755341524632,
21,TTF,TTF_21_gjoet_070319.wav,,,1,rating_d_final.csv,d,final,,,,,0,0,0,0,0,0,0,0,0,13,13,20,,,,,,6,2.504,122,001,2019_Mar_20_1209,test_run,3.0.6,59.99755341524632,
12,TDF,TDF_12_smed_070319.wav,,,1,rating_d_final.csv,d,final,,,,,0,0,0,0,0,0,0,0,0,14,14,11,,,,,,4,1.054,122,001,2019_Mar_20_1209,test_run,3.0.6,59.99755341524632,
8,TDF,TDF_8_nod_070319.wav,,,1,rating_d_final.csv,d,final,,,,,0,0,0,0,0,0,0,0,0,15,15,7,,,,,,2,1.538,122,001,2019_Mar_20_1209,test_run,3.0.6,59.99755341524632,
13,TDF,TDF_13_ljud_070319.wav,,,1,rating_d_final.csv,d,final,,,,,0,0,0,0,0,0,0,0,0,16,16,12,,,,,,3,0.472,122,001,2019_Mar_20_1209,test_run,3.0.6,59.99755341524632,
14,TDF,TDF_14_mod_070319.wav,,,1,rating_d_final.csv,d,final,,,,,0,0,0,0,0,0,0,0,0,17,17,13,,,,,,5,1.37,122,001,2019_Mar_20_1209,test_run,3.0.6,59.99755341524632,
28,TTF,TTF_28_brant_070319.wav,,,1,rating_d_final.csv,d,final,,,,,0,0,0,0,0,0,0,0,0,18,18,27,,,,,,6,0.921,122,001,2019_Mar_20_1209,test_run,3.0.6,59.99755341524632,
11,TDF,TDF_11_svid_070319.wav,,,1,rating_d_final.csv,d,final,,,,,0,0,0,0,0,0,0,0,0,19,19,10,,,,,,3,2.036,122,001,2019_Mar_20_1209,test_run,3.0.6,59.99755341524632,
24,TTF,TTF_24_smit_070319.wav,,,1,rating_d_final.csv,d,final,,,,,0,0,0,0,0,0,0,0,0,20,20,23,,,,,,5,1.853,122,001,2019_Mar_20_1209,test_run,3.0.6,59.99755341524632,
19,TTF,TTF_19_skoet_070319.wav,,,1,rating_d_final.csv,d,final,,,,,0,0,0,0,0,0,0,0,0,21,21,18,,,,,,3,3.103,122,001,2019_Mar_20_1209,test_run,3.0.6,59.99755341524632,
9,TDF,TDF_9_bod_070319.wav,,,1,rating_d_final.csv,d,final,,,,,0,0,0,0,0,0,0,0,0,22,22,8,,,,,,5,4.404,122,001,2019_Mar_20_1209,test_run,3.0.6,59.99755341524632,
32,TTF,TTF_32_hoart_070319.wav,,,1,rating_d_final.csv,d,final,,,,,0,0,0,0,0,0,0,0,0,23,23,31,,,,,,4,3.387,122,001,2019_Mar_20_1209,test_run,3.0.6,59.99755341524632,
6,TDF,TDF_6_voard_070319.wav,,,1,rating_d_final.csv,d,final,,,,,0,0,0,0,0,0,0,0,0,24,24,5,,,,,,5,3.304,122,001,2019_Mar_20_1209,test_run,3.0.6,59.99755341524632,
30,TTF,TTF_30_slatt_070319.wav,,,1,rating_d_final.csv,d,final,,,,,0,0,0,0,0,0,0,0,0,25,25,29,,,,,,6,2.353,122,001,2019_Mar_20_1209,test_run,3.0.6,59.99755341524632,
1,TDF,TDF_1_rid_070319.wav,,,1,rating_d_final.csv,d,final,,,,,0,0,0,0,0,0,0,0,0,26,26,0,,,,,,3,1.021,122,001,2019_Mar_20_1209,test_run,3.0.6,59.99755341524632,
16,TDF,TDF_16_fond_070319.wav,,,1,rating_d_final.csv,d,final,,,,,0,0,0,0,0,0,0,0,0,27,27,15,,,,,,6,1.354,122,001,2019_Mar_20_1209,test_run,3.0.6,59.99755341524632,
23,TTF,TTF_23_hut_070319.wav,,,1,rating_d_final.csv,d,final,,,,,0,0,0,0,0,0,0,0,0,28,28,22,,,,,,5,0.921,122,001,2019_Mar_20_1209,test_run,3.0.6,59.99755341524632,
18,TTF,TTF_18_skjut_070319.wav,,,1,rating_d_final.csv,d,final,,,,,0,0,0,0,0,0,0,0,0,29,29,17,,,,,,5,1.586,122,001,2019_Mar_20_1209,test_run,3.0.6,59.99755341524632,
27,TTF,TTF_27_sant_070319.wav,,,1,rating_d_final.csv,d,final,,,,,0,0,0,0,0,0,0,0,0,30,30,26,,,,,,5,0.888,122,001,2019_Mar_20_1209,test_run,3.0.6,59.99755341524632,
2,TDF,TDF_2_ved_070319.wav,,,1,rating_d_final.csv,d,final,,,,,0,0,0,0,0,0,0,0,0,31,31,1,,,,,,6,1.187,122,001,2019_Mar_20_1209,test_run,3.0.6,59.99755341524632,
7,TTF,TTF_7_vit_070319.wav,,,1,rating_t_final.csv,t,final,,,,,0,0,0,0,0,1,1,1,0,0,0,6,,,,,,4,4.587,122,001,2019_Mar_20_1209,test_run,3.0.6,59.99755341524632,
32,TDF,TDF_32_hoard_070319.wav,,,1,rating_t_final.csv,t,final,,,,,0,0,0,0,0,1,1,1,0,1,1,31,,,,,,3,1.454,122,001,2019_Mar_20_1209,test_run,3.0.6,59.99755341524632,
6,TTF,TTF_6_voart_070319.wav,,,1,rating_t_final.csv,t,final,,,,,0,0,0,0,0,1,1,1,0,2,2,5,,,,,,6,1.488,122,001,2019_Mar_20_1209,test_run,3.0.6,59.99755341524632,
12,TTF,TTF_12_smet_070319.wav,,,1,rating_t_final.csv,t,final,,,,,0,0,0,0,0,1,1,1,0,3,3,11,,,,,,6,0.654,122,001,2019_Mar_20_1209,test_run,3.0.6,59.99755341524632,
29,TDF,TDF_29_baadd_070319.wav,,,1,rating_t_final.csv,t,final,,,,,0,0,0,0,0,1,1,1,0,4,4,28,,,,,,4,0.737,122,001,2019_Mar_20_1209,test_run,3.0.6,59.99755341524632,
21,TDF,TDF_21_ljod _070319.wav,,,1,rating_t_final.csv,t,final,,,,,0,0,0,0,0,1,1,1,0,5,5,20,,,,,,5,2.337,122,001,2019_Mar_20_1209,test_run,3.0.6,59.99755341524632,
17,TDF,TDF_17_sked_070319.wav,,,1,rating_t_final.csv,t,final,,,,,0,0,0,0,0,1,1,1,0,6,6,16,,,,,,2,7.82,122,001,2019_Mar_20_1209,test_run,3.0.6,59.99755341524632,
3,TTF,TTF_3_raat_070319.wav,,,1,rating_t_final.csv,t,final,,,,,0,0,0,0,0,1,1,1,0,7,7,2,,,,,,6,1.988,122,001,2019_Mar_20_1209,test_run,3.0.6,59.99755341524632,
25,TDF,TDF_25_synd_070319.wav,,,1,rating_t_final.csv,t,final,,,,,0,0,0,0,0,1,1,1,0,8,8,24,,,,,,1,2.72,122,001,2019_Mar_20_1209,test_run,3.0.6,59.99755341524632,
22,TDF,TDF_22_hed_070319.wav,,,1,rating_t_final.csv,t,final,,,,,0,0,0,0,0,1,1,1,0,9,9,21,,,,,,3,4.586,122,001,2019_Mar_20_1209,test_run,3.0.6,59.99755341524632,
30,TDF,TDF_30_sladd_070319.wav,,,1,rating_t_final.csv,t,final,,,,,0,0,0,0,0,1,1,1,0,10,10,29,,,,,,2,2.438,122,001,2019_Mar_20_1209,test_run,3.0.6,59.99755341524632,
13,TTF,TTF_13_gjut_070319.wav,,,1,rating_t_final.csv,t,final,,,,,0,0,0,0,0,1,1,1,0,11,11,12,,,,,,5,1.487,122,001,2019_Mar_20_1209,test_run,3.0.6,59.99755341524632,
15,TTF,TTF_15_not_070319.wav,,,1,rating_t_final.csv,t,final,,,,,0,0,0,0,0,1,1,1,0,12,12,14,,,,,,6,0.587,122,001,2019_Mar_20_1209,test_run,3.0.6,59.99755341524632,
18,TDF,TDF_18_sjud_070319.wav,,,1,rating_t_final.csv,t,final,,,,,0,0,0,0,0,1,1,1,0,13,13,17,,,,,,2,1.871,122,001,2019_Mar_20_1209,test_run,3.0.6,59.99755341524632,
10,TTF,TTF_10_broet_070319.wav,,,1,rating_t_final.csv,t,final,,,,,0,0,0,0,0,1,1,1,0,14,14,9,,,,,,6,1.253,122,001,2019_Mar_20_1209,test_run,3.0.6,59.99755341524632,
9,TTF,TTF_9_bot_070319.wav,,,1,rating_t_final.csv,t,final,,,,,0,0,0,0,0,1,1,1,0,15,15,8,,,,,,5,0.688,122,001,2019_Mar_20_1209,test_run,3.0.6,59.99755341524632,
16,TTF,TTF_16_font_070319.wav,,,1,rating_t_final.csv,t,final,,,,,0,0,0,0,0,1,1,1,0,16,16,15,,,,,,6,0.637,122,001,2019_Mar_20_1209,test_run,3.0.6,59.99755341524632,
27,TDF,TDF_27_sand_070319.wav,,,1,rating_t_final.csv,t,final,,,,,0,0,0,0,0,1,1,1,0,17,17,26,,,,,,1,2.637,122,001,2019_Mar_20_1209,test_run,3.0.6,59.99755341524632,
14,TTF,TTF_14_mot_070319.wav,,,1,rating_t_final.csv,t,final,,,,,0,0,0,0,0,1,1,1,0,18,18,13,,,,,,7,0.538,122,001,2019_Mar_20_1209,test_run,3.0.6,59.99755341524632,
4,TTF,TTF_4_roet_070319.wav,,,1,rating_t_final.csv,t,final,,,,,0,0,0,0,0,1,1,1,0,19,19,3,,,,,,5,1.104,122,001,2019_Mar_20_1209,test_run,3.0.6,59.99755341524632,
1,TTF,TTF_1_rit_070319.wav,,,1,rating_t_final.csv,t,final,,,,,0,0,0,0,0,1,1,1,0,20,20,0,,,,,,4,0.502,122,001,2019_Mar_20_1209,test_run,3.0.6,59.99755341524632,
20,TDF,TDF_20_god_070319.wav,,,1,rating_t_final.csv,t,final,,,,,0,0,0,0,0,1,1,1,0,21,21,19,,,,,,2,0.804,122,001,2019_Mar_20_1209,test_run,3.0.6,59.99755341524632,
26,TDF,TDF_26_rymd_070319.wav,,,1,rating_t_final.csv,t,final,,,,,0,0,0,0,0,1,1,1,0,22,22,25,,,,,,3,0.671,122,001,2019_Mar_20_1209,test_run,3.0.6,59.99755341524632,
19,TDF,TDF_19_sjod_070319.wav,,,1,rating_t_final.csv,t,final,,,,,0,0,0,0,0,1,1,1,0,23,23,18,,,,,,6,1.218,122,001,2019_Mar_20_1209,test_run,3.0.6,59.99755341524632,
11,TTF,TTF_11_svit_070319.wav,,,1,rating_t_final.csv,t,final,,,,,0,0,0,0,0,1,1,1,0,24,24,10,,,,,,7,0.671,122,001,2019_Mar_20_1209,test_run,3.0.6,59.99755341524632,
5,TTF,TTF_5_voat_070319.wav,,,1,rating_t_final.csv,t,final,,,,,0,0,0,0,0,1,1,1,0,25,25,4,,,,,,6,0.753,122,001,2019_Mar_20_1209,test_run,3.0.6,59.99755341524632,
31,TDF,TDF_31_brodd_070319.wav,,,1,rating_t_final.csv,t,final,,,,,0,0,0,0,0,1,1,1,0,26,26,30,,,,,,3,1.188,122,001,2019_Mar_20_1209,test_run,3.0.6,59.99755341524632,
28,TDF,TDF_28_brand_070319.wav,,,1,rating_t_final.csv,t,final,,,,,0,0,0,0,0,1,1,1,0,27,27,27,,,,,,2,1.021,122,001,2019_Mar_20_1209,test_run,3.0.6,59.99755341524632,
23,TDF,TDF_23_hud_070319.wav,,,1,rating_t_final.csv,t,final,,,,,0,0,0,0,0,1,1,1,0,28,28,22,,,,,,1,0.571,122,001,2019_Mar_20_1209,test_run,3.0.6,59.99755341524632,
24,TDF,TDF_24_smid_070319.wav,,,1,rating_t_final.csv,t,final,,,,,0,0,0,0,0,1,1,1,0,29,29,23,,,,,,3,3.054,122,001,2019_Mar_20_1209,test_run,3.0.6,59.99755341524632,
2,TTF,TTF_2_vet_070319.wav,,,1,rating_t_final.csv,t,final,,,,,0,0,0,0,0,1,1,1,0,30,30,1,,,,,,5,1.088,122,001,2019_Mar_20_1209,test_run,3.0.6,59.99755341524632,
8,TTF,TTF_8_noet_070319.wav,,,1,rating_t_final.csv,t,final,,,,,0,0,0,0,0,1,1,1,0,31,31,7,,,,,,7,0.77,122,001,2019_Mar_20_1209,test_run,3.0.6,59.99755341524632,
27,TDI,TDI_27_doem_edit_150219.wav,,,2,rating_t_initial.csv,t,initial,,,,,0,1,1,1,0,0,0,1,0,0,0,26,,,,,,2,2.07,122,001,2019_Mar_20_1209,test_run,3.0.6,59.99755341524632,
24,TDI,TDI_24_daack_150219.wav,,,2,rating_t_initial.csv,t,initial,,,,,0,1,1,1,0,0,0,1,0,1,1,23,,,,,,1,3.42,122,001,2019_Mar_20_1209,test_run,3.0.6,59.99755341524632,
8,TTI,TTI_8_tia_150219.wav,,,2,rating_t_initial.csv,t,initial,,,,,0,1,1,1,0,0,0,1,0,2,2,7,,,,,,6,0.487,122,001,2019_Mar_20_1209,test_run,3.0.6,59.99755341524632,
15,TDI,TDI_15_dom_150219.wav,,,2,rating_t_initial.csv,t,initial,,,,,0,1,1,1,0,0,0,1,0,3,3,14,,,,,,2,0.704,122,001,2019_Mar_20_1209,test_run,3.0.6,59.99755341524632,
9,TTI,TTI_9_till_150219.wav,,,2,rating_t_initial.csv,t,initial,,,,,0,1,1,1,0,0,0,1,0,4,4,8,,,,,,3,2.405,122,001,2019_Mar_20_1209,test_run,3.0.6,59.99755341524632,
18,TDI,TDI_18_dum_150219.wav,,,2,rating_t_initial.csv,t,initial,,,,,0,1,1,1,0,0,0,1,0,5,5,17,,,,,,1,0.771,122,001,2019_Mar_20_1209,test_run,3.0.6,59.99755341524632,
17,TDI,TDI_17_dopp_150219.wav,,,2,rating_t_initial.csv,t,initial,,,,,0,1,1,1,0,0,0,1,0,6,6,16,,,,,,2,0.871,122,001,2019_Mar_20_1209,test_run,3.0.6,59.99755341524632,
26,TDI,TDI_26_doe_150219.wav,,,2,rating_t_initial.csv,t,initial,,,,,0,1,1,1,0,0,0,1,0,7,7,25,,,,,,1,0.753,122,001,2019_Mar_20_1209,test_run,3.0.6,59.99755341524632,
16,TDI,TDI_16_don_150219.wav,,,2,rating_t_initial.csv,t,initial,,,,,0,1,1,1,0,0,0,1,0,8,8,15,,,,,,1,0.753,122,001,2019_Mar_20_1209,test_run,3.0.6,59.99755341524632,
2,TTI,TTI_2_tagg_150219.wav,,,2,rating_t_initial.csv,t,initial,,,,,0,1,1,1,0,0,0,1,0,9,9,1,,,,,,3,1.204,122,001,2019_Mar_20_1209,test_run,3.0.6,59.99755341524632,
7,TTI,TTI_7_tenn_150219.wav,,,2,rating_t_initial.csv,t,initial,,,,,0,1,1,1,0,0,0,1,0,10,10,6,,,,,,2,0.754,122,001,2019_Mar_20_1209,test_run,3.0.6,59.99755341524632,
1,TTI,TTI_1_tag_150219.wav,,,2,rating_t_initial.csv,t,initial,,,,,0,1,1,1,0,0,0,1,0,11,11,0,,,,,,2,0.738,122,001,2019_Mar_20_1209,test_run,3.0.6,59.99755341524632,
21,TDI,TDI_21_dugg_150219.wav,,,2,rating_t_initial.csv,t,initial,,,,,0,1,1,1,0,0,0,1,0,12,12,20,,,,,,1,0.704,122,001,2019_Mar_20_1209,test_run,3.0.6,59.99755341524632,
5,TTI,TTI_5_tass_150219.wav,,,2,rating_t_initial.csv,t,initial,,,,,0,1,1,1,0,0,0,1,0,13,13,4,,,,,,1,0.654,122,001,2019_Mar_20_1209,test_run,3.0.6,59.99755341524632,
11,TTI,TTI_11_tipp_150219.wav,,,2,rating_t_initial.csv,t,initial,,,,,0,1,1,1,0,0,0,1,0,14,14,10,,,,,,4,1.52,122,001,2019_Mar_20_1209,test_run,3.0.6,59.99755341524632,
23,TDI,TDI_23_doa_150219.wav,,,2,rating_t_initial.csv,t,initial,,,,,0,1,1,1,0,0,0,1,0,15,15,22,,,,,,1,3.103,122,001,2019_Mar_20_1209,test_run,3.0.6,59.99755341524632,
12,TTI,TTI_12_toa_150219.wav,,,2,rating_t_initial.csv,t,initial,,,,,0,1,1,1,0,0,0,1,0,16,16,11,,,,,,2,0.52,122,001,2019_Mar_20_1209,test_run,3.0.6,59.99755341524632,
20,TDI,TDI_20_dur_150219.wav,,,2,rating_t_initial.csv,t,initial,,,,,0,1,1,1,0,0,0,1,0,17,17,19,,,,,,1,2.12,122,001,2019_Mar_20_1209,test_run,3.0.6,59.99755341524632,
3,TTI,TTI_3_tal_150219.wav,,,2,rating_t_initial.csv,t,initial,,,,,0,1,1,1,0,0,0,1,0,18,18,2,,,,,,2,1.887,122,001,2019_Mar_20_1209,test_run,3.0.6,59.99755341524632,
19,TDI,TDI_19_dun_150219.wav,,,2,rating_t_initial.csv,t,initial,,,,,0,1,1,1,0,0,0,1,0,19,19,18,,,,,,1,0.72,122,001,2019_Mar_20_1209,test_run,3.0.6,59.99755341524632,
4,TTI,TTI_4_tam_150219.wav,,,2,rating_t_initial.csv,t,initial,,,,,0,1,1,1,0,0,0,1,0,20,20,3,,,,,,2,0.82,122,001,2019_Mar_20_1209,test_run,3.0.6,59.99755341524632,
25,TDI,TDI_25_daar_150219.wav,,,2,rating_t_initial.csv,t,initial,,,,,0,1,1,1,0,0,0,1,0,21,21,24,,,,,,2,0.854,122,001,2019_Mar_20_1209,test_run,3.0.6,59.99755341524632,
13,TTI,TTI_13_tog_150219.wav,,,2,rating_t_initial.csv,t,initial,,,,,0,1,1,1,0,0,0,1,0,22,22,12,,,,,,4,0.821,122,001,2019_Mar_20_1209,test_run,3.0.6,59.99755341524632,
14,TTI,TTI_14_tok_150219.wav,,,2,rating_t_initial.csv,t,initial,,,,,0,1,1,1,0,0,0,1,0,23,23,13,,,,,,4,0.887,122,001,2019_Mar_20_1209,test_run,3.0.6,59.99755341524632,
22,TDI,TDI_22_dy_150219.wav,,,2,rating_t_initial.csv,t,initial,,,,,0,1,1,1,0,0,0,1,0,24,24,21,,,,,,3,1.021,122,001,2019_Mar_20_1209,test_run,3.0.6,59.99755341524632,
6,TTI,TTI_6_teg_150219.wav,,,2,rating_t_initial.csv,t,initial,,,,,0,1,1,1,0,0,0,1,0,25,25,5,,,,,,2,0.62,122,001,2019_Mar_20_1209,test_run,3.0.6,59.99755341524632,
10,TTI,TTI_10_titt_150219.wav,,,2,rating_t_initial.csv,t,initial,,,,,0,1,1,1,0,0,0,1,0,26,26,9,,,,,,2,1.237,122,001,2019_Mar_20_1209,test_run,3.0.6,59.99755341524632,
10,TDI,TDI_10_ditt_150219.wav,,,2,rating_d_initial.csv,d,initial,,,,,0,1,1,1,0,1,1,0,0,0,0,9,,,,,,6,2.837,122,001,2019_Mar_20_1209,test_run,3.0.6,59.99755341524632,
11,TDI,TDI_11_dipp_150219.wav,,,2,rating_d_initial.csv,d,initial,,,,,0,1,1,1,0,1,1,0,0,1,1,10,,,,,,7,2.087,122,001,2019_Mar_20_1209,test_run,3.0.6,59.99755341524632,
1,TDI,TDI_1_dag_150219.wav,,,2,rating_d_initial.csv,d,initial,,,,,0,1,1,1,0,1,1,0,0,2,2,0,,,,,,6,2.771,122,001,2019_Mar_20_1209,test_run,3.0.6,59.99755341524632,
14,TDI,TDI_14_dok_150219.wav,,,2,rating_d_initial.csv,d,initial,,,,,0,1,1,1,0,1,1,0,0,3,3,13,,,,,,5,1.187,122,001,2019_Mar_20_1209,test_run,3.0.6,59.99755341524632,
17,TTI,TTI_17_topp_150219.wav,,,2,rating_d_initial.csv,d,initial,,,,,0,1,1,1,0,1,1,0,0,4,4,16,,,,,,5,0.904,122,001,2019_Mar_20_1209,test_run,3.0.6,59.99755341524632,
8,TDI,TDI_8_dia_150219.wav,,,2,rating_d_initial.csv,d,initial,,,,,0,1,1,1,0,1,1,0,0,5,5,7,,,,,,7,0.654,122,001,2019_Mar_20_1209,test_run,3.0.6,59.99755341524632,
3,TDI,TDI_3_dal_150219.wav,,,2,rating_d_initial.csv,d,initial,,,,,0,1,1,1,0,1,1,0,0,6,6,2,,,,,,7,0.554,122,001,2019_Mar_20_1209,test_run,3.0.6,59.99755341524632,
6,TDI,TDI_6_deg_150219.wav,,,2,rating_d_initial.csv,d,initial,,,,,0,1,1,1,0,1,1,0,0,7,7,5,,,,,,6,0.721,122,001,2019_Mar_20_1209,test_run,3.0.6,59.99755341524632,
25,TTI,TTI_25_taar_150219.wav,,,2,rating_d_initial.csv,d,initial,,,,,0,1,1,1,0,1,1,0,0,8,8,24,,,,,,6,0.935,122,001,2019_Mar_20_1209,test_run,3.0.6,59.99755341524632,
12,TDI,TDI_12_doa_150219.wav,,,2,rating_d_initial.csv,d,initial,,,,,0,1,1,1,0,1,1,0,0,9,9,11,,,,,,7,1.087,122,001,2019_Mar_20_1209,test_run,3.0.6,59.99755341524632,
5,TDI,TDI_5_dass_150219.wav,,,2,rating_d_initial.csv,d,initial,,,,,0,1,1,1,0,1,1,0,0,10,10,4,,,,,,6,0.52,122,001,2019_Mar_20_1209,test_run,3.0.6,59.99755341524632,
18,TTI,TTI_18_tum_150219.wav,,,2,rating_d_initial.csv,d,initial,,,,,0,1,1,1,0,1,1,0,0,11,11,17,,,,,,4,0.62,122,001,2019_Mar_20_1209,test_run,3.0.6,59.99755341524632,
13,TDI,TDI_13_dog_150219.wav,,,2,rating_d_initial.csv,d,initial,,,,,0,1,1,1,0,1,1,0,0,12,12,12,,,,,,6,0.687,122,001,2019_Mar_20_1209,test_run,3.0.6,59.99755341524632,
20,TTI,TTI_20_tur_150219.wav,,,2,rating_d_initial.csv,d,initial,,,,,0,1,1,1,0,1,1,0,0,13,13,19,,,,,,3,0.704,122,001,2019_Mar_20_1209,test_run,3.0.6,59.99755341524632,
23,TTI,TTI_23_toa_150219.wav,,,2,rating_d_initial.csv,d,initial,,,,,0,1,1,1,0,1,1,0,0,14,14,22,,,,,,6,0.887,122,001,2019_Mar_20_1209,test_run,3.0.6,59.99755341524632,
16,TTI,TTI_16_ton_150219.wav,,,2,rating_d_initial.csv,d,initial,,,,,0,1,1,1,0,1,1,0,0,15,15,15,,,,,,2,0.687,122,001,2019_Mar_20_1209,test_run,3.0.6,59.99755341524632,
9,TDI,TDI_9_dill_150219.wav,,,2,rating_d_initial.csv,d,initial,,,,,0,1,1,1,0,1,1,0,0,16,16,8,,,,,,7,1.403,122,001,2019_Mar_20_1209,test_run,3.0.6,59.99755341524632,
7,TDI,TDI_7_den_150219.wav,,,2,rating_d_initial.csv,d,initial,,,,,0,1,1,1,0,1,1,0,0,17,17,6,,,,,,7,0.62,122,001,2019_Mar_20_1209,test_run,3.0.6,59.99755341524632,
22,TTI,TTI_22_ty_150219.wav,,,2,rating_d_initial.csv,d,initial,,,,,0,1,1,1,0,1,1,0,0,18,18,21,,,,,,5,0.554,122,001,2019_Mar_20_1209,test_run,3.0.6,59.99755341524632,
2,TDI,TDI_2_dagg_150219.wav,,,2,rating_d_initial.csv,d,initial,,,,,0,1,1,1,0,1,1,0,0,19,19,1,,,,,,6,0.87,122,001,2019_Mar_20_1209,test_run,3.0.6,59.99755341524632,
26,TTI,TTI_26_toe_150219.wav,,,2,rating_d_initial.csv,d,initial,,,,,0,1,1,1,0,1,1,0,0,20,20,25,,,,,,7,0.52,122,001,2019_Mar_20_1209,test_run,3.0.6,59.99755341524632,
15,TTI,TTI_15_tom_150219.wav,,,2,rating_d_initial.csv,d,initial,,,,,0,1,1,1,0,1,1,0,0,21,21,14,,,,,,1,0.67,122,001,2019_Mar_20_1209,test_run,3.0.6,59.99755341524632,
24,TTI,TTI_24_taack_150219.wav,,,2,rating_d_initial.csv,d,initial,,,,,0,1,1,1,0,1,1,0,0,22,22,23,,,,,,5,0.82,122,001,2019_Mar_20_1209,test_run,3.0.6,59.99755341524632,
19,TTI,TTI_19_tun_150219.wav,,,2,rating_d_initial.csv,d,initial,,,,,0,1,1,1,0,1,1,0,0,23,23,18,,,,,,3,0.72,122,001,2019_Mar_20_1209,test_run,3.0.6,59.99755341524632,
21,TTI,TTI_21_tugg_150219.wav,,,2,rating_d_initial.csv,d,initial,,,,,0,1,1,1,0,1,1,0,0,24,24,20,,,,,,2,0.537,122,001,2019_Mar_20_1209,test_run,3.0.6,59.99755341524632,
27,TTI,TTI_27_toem_150219.wav,,,2,rating_d_initial.csv,d,initial,,,,,0,1,1,1,0,1,1,0,0,25,25,26,,,,,,3,1.871,122,001,2019_Mar_20_1209,test_run,3.0.6,59.99755341524632,
4,TDI,TDI_4_dam_150219.wav,,,2,rating_d_initial.csv,d,initial,,,,,0,1,1,1,0,1,1,0,0,26,26,3,,,,,,7,0.72,122,001,2019_Mar_20_1209,test_run,3.0.6,59.99755341524632,
