item,item_cond,sound,corr_ans,group,block_id,listname,rating_for,position,trials.thisRepN,trials.thisTrialN,trials.thisN,trials.thisIndex,run_block_type.thisRepN,run_block_type.thisTrialN,run_block_type.thisN,run_block_type.thisIndex,routine.thisRepN,routine.thisTrialN,routine.thisN,routine.thisIndex,rating_trials.thisRepN,rating_trials.thisTrialN,rating_trials.thisN,rating_trials.thisIndex,key_resp_1.keys,key_resp_1.rt,key_resp_2.keys,key_resp_2.corr,key_resp_2.rt,rating_1.response,rating_1.rt,participant,session,date,expName,psychopyVersion,frameRate,
,,,,,,,,,,,,,,,,,,,,,,,,,space,15.186700239020865,,,,,,123,001,2019_Mar_20_1234,test_run,3.0.6,59.99768048528138,
147,ENW,ENW_57_flovanning_150219.wav,n,t,,,,,0,0,0,146,,,,,,,,,,,,,,,n,1,1.5358162350021303,,,123,001,2019_Mar_20_1234,test_run,3.0.6,59.99768048528138,
143,ENW,ENW_53_svarmvisso_150219.wav,n,t,,,,,0,1,1,142,,,,,,,,,,,,,,,n,1,0.31945704101235606,,,123,001,2019_Mar_20_1234,test_run,3.0.6,59.99768048528138,
5,ETW,ETW_5_skepnad_070319.wav,j,t,,,,,0,2,2,4,,,,,,,,,,,,,,,j,1,0.050347519980277866,,,123,001,2019_Mar_20_1234,test_run,3.0.6,59.99768048528138,
75,EFW,EFW_45_innanfoer_070319.wav,j,t,,,,,0,3,3,74,,,,,,,,,,,,,,,j,1,0.4524686390068382,,,123,001,2019_Mar_20_1234,test_run,3.0.6,59.99768048528138,
21,ETW,ETW_21_marmelad_070319.wav,j,t,,,,,0,4,4,20,,,,,,,,,,,,,,,j,1,0.2525220279931091,,,123,001,2019_Mar_20_1234,test_run,3.0.6,59.99768048528138,
22,ETW,ETW_22_sinnesfrid_070319.wav,j,t,,,,,0,5,5,21,,,,,,,,,,,,,,,j,1,0.7687413420062512,,,123,001,2019_Mar_20_1234,test_run,3.0.6,59.99768048528138,
47,EFW,EFW_17_januari_070319.wav,j,t,,,,,0,6,6,46,,,,,,,,,,,,,,,j,1,0.3003124879905954,,,123,001,2019_Mar_20_1234,test_run,3.0.6,59.99768048528138,
142,ENW,ENW_52_filofyll_150219.wav,n,t,,,,,0,7,7,141,,,,,,,,,,,,,,,n,1,0.3029092880024109,,,123,001,2019_Mar_20_1234,test_run,3.0.6,59.99768048528138,
50,EFW,EFW_20_fenomen_070319.wav,j,t,,,,,0,8,8,49,,,,,,,,,,,,,,,j,1,0.3189898220007308,,,123,001,2019_Mar_20_1234,test_run,3.0.6,59.99768048528138,
135,ENW,ENW_45_fammoarens_150219.wav,n,t,,,,,0,9,9,134,,,,,,,,,,,,,,,n,1,0.31893068697536364,,,123,001,2019_Mar_20_1234,test_run,3.0.6,59.99768048528138,
144,ENW,ENW_54_lomering_150219.wav,n,t,,,,,0,10,10,143,,,,,,,,,,,,,,,n,1,0.25236091000260785,,,123,001,2019_Mar_20_1234,test_run,3.0.6,59.99768048528138,
40,EFW,EFW_10_laarare_070319.wav,j,t,,,,,0,11,11,39,,,,,,,,,,,,,,,j,1,0.2697833870188333,,,123,001,2019_Mar_20_1234,test_run,3.0.6,59.99768048528138,
53,EFW,EFW_23_aamne_070319.wav,j,t,,,,,0,12,12,52,,,,,,,,,,,,,,,j,1,0.30235594999976456,,,123,001,2019_Mar_20_1234,test_run,3.0.6,59.99768048528138,
151,ENW,ENW_61_myckskina_150219.wav,n,t,,,,,0,13,13,150,,,,,,,,,,,,,,,n,1,0.3855634669889696,,,123,001,2019_Mar_20_1234,test_run,3.0.6,59.99768048528138,
178,ENW,ENW_88_marsifen_150219.wav,n,t,,,,,0,14,14,177,,,,,,,,,,,,,,,n,1,0.3028565529966727,,,123,001,2019_Mar_20_1234,test_run,3.0.6,59.99768048528138,
149,ENW,ENW_59_kyrkmänning_150219.wav,n,t,,,,,0,15,15,148,,,,,,,,,,,,,,,j,0,0.6021980160148814,,,123,001,2019_Mar_20_1234,test_run,3.0.6,59.99768048528138,
17,ETW,ETW_17_hemmavid_070319.wav,j,t,,,,,0,16,16,16,,,,,,,,,,,,,,,j,1,0.35293790997820906,,,123,001,2019_Mar_20_1234,test_run,3.0.6,59.99768048528138,
122,ENW,ENW_32_fonering_150219.wav,n,t,,,,,0,17,17,121,,,,,,,,,,,,,,,n,1,0.3023732959991321,,,123,001,2019_Mar_20_1234,test_run,3.0.6,59.99768048528138,
43,EFW,EFW_13_elever_070319.wav,j,t,,,,,0,18,18,42,,,,,,,,,,,,,,,j,1,0.3025292069942225,,,123,001,2019_Mar_20_1234,test_run,3.0.6,59.99768048528138,
80,EFW,EFW_50_snaalla_070319.wav,j,t,,,,,0,19,19,79,,,,,,,,,,,,,,,j,1,0.4690114389813971,,,123,001,2019_Mar_20_1234,test_run,3.0.6,59.99768048528138,
112,ENW,ENW_22_fjäserna_150219.wav,n,t,,,,,0,20,20,111,,,,,,,,,,,,,,,n,1,0.28558605699799955,,,123,001,2019_Mar_20_1234,test_run,3.0.6,59.99768048528138,
9,ETW,ETW_9_haarmed_070319.wav,j,t,,,,,0,21,21,8,,,,,,,,,,,,,,,n,0,0.28600115701556206,,,123,001,2019_Mar_20_1234,test_run,3.0.6,59.99768048528138,
141,ENW,ENW_51_skillare_150219.wav,n,t,,,,,0,22,22,140,,,,,,,,,,,,,,,n,1,0.31904267001664266,,,123,001,2019_Mar_20_1234,test_run,3.0.6,59.99768048528138,
45,EFW,EFW_15_oeverens_070319.wav,j,t,,,,,0,23,23,44,,,,,,,,,,,,,,,j,1,0.35246580600505695,,,123,001,2019_Mar_20_1234,test_run,3.0.6,59.99768048528138,
56,EFW,EFW_26_armarna_070319.wav,j,t,,,,,0,24,24,55,,,,,,,,,,,,,,,j,1,0.3854123079800047,,,123,001,2019_Mar_20_1234,test_run,3.0.6,59.99768048528138,
72,EFW,EFW_42_naavaron_070319.wav,j,t,,,,,0,25,25,71,,,,,,,,,,,,,,,j,1,0.3526976929861121,,,123,001,2019_Mar_20_1234,test_run,3.0.6,59.99768048528138,
152,ENW,ENW_62_ljullepilja_150219.wav,n,t,,,,,0,26,26,151,,,,,,,,,,,,,,,n,1,0.2854387790139299,,,123,001,2019_Mar_20_1234,test_run,3.0.6,59.99768048528138,
102,ENW,ENW_12_snälmola_150219.wav,n,t,,,,,0,27,27,101,,,,,,,,,,,,,,,n,1,0.28606138698523864,,,123,001,2019_Mar_20_1234,test_run,3.0.6,59.99768048528138,
146,ENW,ENW_56_lysskarna_150219.wav,n,t,,,,,0,28,28,145,,,,,,,,,,,,,,,n,1,0.33584094600519165,,,123,001,2019_Mar_20_1234,test_run,3.0.6,59.99768048528138,
88,EFW,EFW_58_examen_070319.wav,j,t,,,,,0,29,29,87,,,,,,,,,,,,,,,j,1,0.3529491479857825,,,123,001,2019_Mar_20_1234,test_run,3.0.6,59.99768048528138,
94,ENW,ENW_4_kyllfaren_150219.wav,n,t,,,,,0,30,30,93,,,,,,,,,,,,,,,n,1,0.3196567289996892,,,123,001,2019_Mar_20_1234,test_run,3.0.6,59.99768048528138,
35,EFW,EFW_5_samhaalle_070319.wav,j,t,,,,,0,31,31,34,,,,,,,,,,,,,,,j,1,0.3188222860044334,,,123,001,2019_Mar_20_1234,test_run,3.0.6,59.99768048528138,
52,EFW,EFW_22_normala_070319.wav,j,t,,,,,0,32,32,51,,,,,,,,,,,,,,,j,1,0.41929434600751847,,,123,001,2019_Mar_20_1234,test_run,3.0.6,59.99768048528138,
121,ENW,ENW_31_romation_150219.wav,n,t,,,,,0,33,33,120,,,,,,,,,,,,,,,n,1,0.35254082901519723,,,123,001,2019_Mar_20_1234,test_run,3.0.6,59.99768048528138,
48,EFW,EFW_18_nummer_070319.wav,j,t,,,,,0,34,34,47,,,,,,,,,,,,,,,j,1,0.7031266459962353,,,123,001,2019_Mar_20_1234,test_run,3.0.6,59.99768048528138,
130,ENW,ENW_40_knipackar_150219.wav,n,t,,,,,0,35,35,129,,,,,,,,,,,,,,,n,1,0.4526723220187705,,,123,001,2019_Mar_20_1234,test_run,3.0.6,59.99768048528138,
173,ENW,ENW_83_fyrskovar_150219.wav,n,t,,,,,0,36,36,172,,,,,,,,,,,,,,,n,1,0.3692007150093559,,,123,001,2019_Mar_20_1234,test_run,3.0.6,59.99768048528138,
91,ENW,ENW_1_norsimerar_150219.wav,n,t,,,,,0,37,37,90,,,,,,,,,,,,,,,n,1,0.35218850799719803,,,123,001,2019_Mar_20_1234,test_run,3.0.6,59.99768048528138,
126,ENW,ENW_36_skymlosa_150219.wav,n,t,,,,,0,38,38,125,,,,,,,,,,,,,,,n,1,0.369307649001712,,,123,001,2019_Mar_20_1234,test_run,3.0.6,59.99768048528138,
180,ENW,ENW_90_skrivinar_150219.wav,n,t,,,,,0,39,39,179,,,,,,,,,,,,,,,n,1,0.31934296200051904,,,123,001,2019_Mar_20_1234,test_run,3.0.6,59.99768048528138,
33,EFW,EFW_3_familjen_070319.wav,j,t,,,,,0,40,40,32,,,,,,,,,,,,,,,j,1,0.30257485699257813,,,123,001,2019_Mar_20_1234,test_run,3.0.6,59.99768048528138,
81,EFW,EFW_51_seminarier_070319.wav,j,t,,,,,0,41,41,80,,,,,,,,,,,,,,,j,1,0.31911951801157556,,,123,001,2019_Mar_20_1234,test_run,3.0.6,59.99768048528138,
6,ETW,ETW_6_vemod_070319.wav,j,t,,,,,0,42,42,5,,,,,,,,,,,,,,,j,1,0.3355355419917032,,,123,001,2019_Mar_20_1234,test_run,3.0.6,59.99768048528138,
79,EFW,EFW_49_vaasen_070319.wav,j,t,,,,,0,43,43,78,,,,,,,,,,,,,,,j,1,0.33650663497974165,,,123,001,2019_Mar_20_1234,test_run,3.0.6,59.99768048528138,
57,EFW,EFW_27_analysera_070319.wav,j,t,,,,,0,44,44,56,,,,,,,,,,,,,,,j,1,0.31949509502737783,,,123,001,2019_Mar_20_1234,test_run,3.0.6,59.99768048528138,
175,ENW,ENW_85_forlinna_150219.wav,n,t,,,,,0,45,45,174,,,,,,,,,,,,,,,n,1,0.3188732220150996,,,123,001,2019_Mar_20_1234,test_run,3.0.6,59.99768048528138,
157,ENW,ENW_67_oafreskar_150219.wav,n,t,,,,,0,46,46,156,,,,,,,,,,,,,,,n,1,0.7023597910010722,,,123,001,2019_Mar_20_1234,test_run,3.0.6,59.99768048528138,
158,ENW,ENW_68_presionar_150219.wav,n,t,,,,,0,47,47,157,,,,,,,,,,,,,,,n,1,0.4004721649980638,,,123,001,2019_Mar_20_1234,test_run,3.0.6,59.99768048528138,
27,ETW,ETW_27_medellivslaangd_070319.wav,j,t,,,,,0,48,48,26,,,,,,,,,,,,,,,j,1,0.3187965050165076,,,123,001,2019_Mar_20_1234,test_run,3.0.6,59.99768048528138,
131,ENW,ENW_41_vessmaren_150219.wav,n,t,,,,,0,49,49,130,,,,,,,,,,,,,,,n,1,0.26900202900287695,,,123,001,2019_Mar_20_1234,test_run,3.0.6,59.99768048528138,
119,ENW,ENW_29_uppskira_150219.wav,n,t,,,,,0,50,50,118,,,,,,,,,,,,,,,n,1,0.4692302539770026,,,123,001,2019_Mar_20_1234,test_run,3.0.6,59.99768048528138,
105,ENW,ENW_15_forfeckla_150219.wav,n,t,,,,,0,51,51,104,,,,,,,,,,,,,,,n,1,0.3526892790105194,,,123,001,2019_Mar_20_1234,test_run,3.0.6,59.99768048528138,
76,EFW,EFW_46_foerhoer_070319.wav,j,t,,,,,0,52,52,75,,,,,,,,,,,,,,,j,1,0.4360298609826714,,,123,001,2019_Mar_20_1234,test_run,3.0.6,59.99768048528138,
90,EFW,EFW_60_insulin_070319.wav,j,t,,,,,0,53,53,89,,,,,,,,,,,,,,,j,1,0.6188869399775285,,,123,001,2019_Mar_20_1234,test_run,3.0.6,59.99768048528138,
154,ENW,ENW_64_havskvare_150219.wav,n,t,,,,,0,54,54,153,,,,,,,,,,,,,,,n,1,0.3856402990058996,,,123,001,2019_Mar_20_1234,test_run,3.0.6,59.99768048528138,
41,EFW,EFW_11_maanniskor_070319.wav,j,t,,,,,0,55,55,40,,,,,,,,,,,,,,,j,1,0.5860948860063218,,,123,001,2019_Mar_20_1234,test_run,3.0.6,59.99768048528138,
37,EFW,EFW_7_sociala_070319.wav,j,t,,,,,0,56,56,36,,,,,,,,,,,,,,,j,1,0.41958368400810286,,,123,001,2019_Mar_20_1234,test_run,3.0.6,59.99768048528138,
137,ENW,ENW_47_oafläppen_150219.wav,n,t,,,,,0,57,57,136,,,,,,,,,,,,,,,n,1,0.5190045509953052,,,123,001,2019_Mar_20_1234,test_run,3.0.6,59.99768048528138,
118,ENW,ENW_28_läkermask_150219.wav,n,t,,,,,0,58,58,117,,,,,,,,,,,,,,,j,0,0.4196818899945356,,,123,001,2019_Mar_20_1234,test_run,3.0.6,59.99768048528138,
124,ENW,ENW_34_jomera_150219.wav,n,t,,,,,0,59,59,123,,,,,,,,,,,,,,,n,1,0.36964849301148206,,,123,001,2019_Mar_20_1234,test_run,3.0.6,59.99768048528138,
31,EFW,EFW_1_allmaan_070319.wav,j,t,,,,,0,60,60,30,,,,,,,,,,,,,,,j,1,0.4186706689943094,,,123,001,2019_Mar_20_1234,test_run,3.0.6,59.99768048528138,
120,ENW,ENW_30_sojera_150219.wav,n,t,,,,,0,61,61,119,,,,,,,,,,,,,,,n,1,0.9353804109850898,,,123,001,2019_Mar_20_1234,test_run,3.0.6,59.99768048528138,
133,ENW,ENW_43_axalän_150219.wav,n,t,,,,,0,62,62,132,,,,,,,,,,,,,,,n,1,0.6022036130016204,,,123,001,2019_Mar_20_1234,test_run,3.0.6,59.99768048528138,
11,ETW,ETW_11_period_070319.wav,j,t,,,,,0,63,63,10,,,,,,,,,,,,,,,j,1,0.3696526910061948,,,123,001,2019_Mar_20_1234,test_run,3.0.6,59.99768048528138,
108,ENW,ENW_18_moalursena_150219.wav,n,t,,,,,0,64,64,107,,,,,,,,,,,,,,,n,1,0.33609857299597934,,,123,001,2019_Mar_20_1234,test_run,3.0.6,59.99768048528138,
93,ENW,ENW_3_vissorens_150219.wav,n,t,,,,,0,65,65,92,,,,,,,,,,,,,,,n,1,0.41887313799816184,,,123,001,2019_Mar_20_1234,test_run,3.0.6,59.99768048528138,
44,EFW,EFW_14_foersoeken_070319.wav,j,t,,,,,0,66,66,43,,,,,,,,,,,,,,,j,1,0.302448865986662,,,123,001,2019_Mar_20_1234,test_run,3.0.6,59.99768048528138,
23,ETW,ETW_23_promenad_070319.wav,j,t,,,,,0,67,67,22,,,,,,,,,,,,,,,j,1,0.35234273300739005,,,123,001,2019_Mar_20_1234,test_run,3.0.6,59.99768048528138,
20,ETW,ETW_20_loppmarknad_070319.wav,j,t,,,,,0,68,68,19,,,,,,,,,,,,,,,j,1,0.40248932599206455,,,123,001,2019_Mar_20_1234,test_run,3.0.6,59.99768048528138,
145,ENW,ENW_55_invaskin_150219.wav,n,t,,,,,0,69,69,144,,,,,,,,,,,,,,,n,1,1.60245202598162,,,123,001,2019_Mar_20_1234,test_run,3.0.6,59.99768048528138,
110,ENW,ENW_20_invonen_150219.wav,n,t,,,,,0,70,70,109,,,,,,,,,,,,,,,n,1,0.41897511400748044,,,123,001,2019_Mar_20_1234,test_run,3.0.6,59.99768048528138,
169,ENW,ENW_79_lyxmare_150219.wav,n,t,,,,,0,71,71,168,,,,,,,,,,,,,,,n,1,0.3694236069859471,,,123,001,2019_Mar_20_1234,test_run,3.0.6,59.99768048528138,
55,EFW,EFW_25_informera_070319.wav,j,t,,,,,0,72,72,54,,,,,,,,,,,,,,,j,1,0.46927610400598496,,,123,001,2019_Mar_20_1234,test_run,3.0.6,59.99768048528138,
155,ENW,ENW_65_hamfylla_150219.wav,n,t,,,,,0,73,73,154,,,,,,,,,,,,,,,n,1,0.3858027240203228,,,123,001,2019_Mar_20_1234,test_run,3.0.6,59.99768048528138,
78,EFW,EFW_48_varifroan_070319.wav,j,t,,,,,0,74,74,77,,,,,,,,,,,,,,,j,1,0.6856807020085398,,,123,001,2019_Mar_20_1234,test_run,3.0.6,59.99768048528138,
98,ENW,ENW_8_haväras_150219.wav,n,t,,,,,0,75,75,97,,,,,,,,,,,,,,,n,1,0.45269785402342677,,,123,001,2019_Mar_20_1234,test_run,3.0.6,59.99768048528138,
104,ENW,ENW_14_kärmenor_150219.wav,n,t,,,,,0,76,76,103,,,,,,,,,,,,,,,n,1,0.3361599010240752,,,123,001,2019_Mar_20_1234,test_run,3.0.6,59.99768048528138,
18,ETW,ETW_18_husfasad_070319.wav,j,t,,,,,0,77,77,17,,,,,,,,,,,,,,,j,1,0.36898840600042604,,,123,001,2019_Mar_20_1234,test_run,3.0.6,59.99768048528138,
63,EFW,EFW_33_elva_070319.wav,j,t,,,,,0,78,78,62,,,,,,,,,,,,,,,j,1,0.285859524999978,,,123,001,2019_Mar_20_1234,test_run,3.0.6,59.99768048528138,
54,EFW,EFW_24_foersvinner_070319.wav,j,t,,,,,0,79,79,53,,,,,,,,,,,,,,,j,1,0.30250976199749857,,,123,001,2019_Mar_20_1234,test_run,3.0.6,59.99768048528138,
100,ENW,ENW_10_skinnamer_150219.wav,n,t,,,,,0,80,80,99,,,,,,,,,,,,,,,n,1,0.43387248399085365,,,123,001,2019_Mar_20_1234,test_run,3.0.6,59.99768048528138,
113,ENW,ENW_23_allsänning_150219.wav,n,t,,,,,0,81,81,112,,,,,,,,,,,,,,,n,1,0.30202229201677255,,,123,001,2019_Mar_20_1234,test_run,3.0.6,59.99768048528138,
115,ENW,ENW_25_affierar_150219.wav,n,t,,,,,0,82,82,114,,,,,,,,,,,,,,,n,1,0.30240909798885696,,,123,001,2019_Mar_20_1234,test_run,3.0.6,59.99768048528138,
132,ENW,ENW_42_hamsforing_150219.wav,n,t,,,,,0,83,83,131,,,,,,,,,,,,,,,n,1,0.31921316400985233,,,123,001,2019_Mar_20_1234,test_run,3.0.6,59.99768048528138,
38,EFW,EFW_8_samman_070319.wav,j,t,,,,,0,84,84,37,,,,,,,,,,,,,,,j,1,0.35271386097883806,,,123,001,2019_Mar_20_1234,test_run,3.0.6,59.99768048528138,
117,ENW,ENW_27_lyssvinner_150219.wav,n,t,,,,,0,85,85,116,,,,,,,,,,,,,,,n,1,0.5020902430114802,,,123,001,2019_Mar_20_1234,test_run,3.0.6,59.99768048528138,
10,ETW,ETW_10_nomad_070319.wav,j,t,,,,,0,86,86,9,,,,,,,,,,,,,,,j,1,0.35298899697954766,,,123,001,2019_Mar_20_1234,test_run,3.0.6,59.99768048528138,
26,ETW,ETW_26_olympiad_070319.wav,j,t,,,,,0,87,87,25,,,,,,,,,,,,,,,j,1,0.3357873560162261,,,123,001,2019_Mar_20_1234,test_run,3.0.6,59.99768048528138,
166,ENW,ENW_76_omfläskor_150219.wav,n,t,,,,,0,88,88,165,,,,,,,,,,,,,,,n,1,0.367173719976563,,,123,001,2019_Mar_20_1234,test_run,3.0.6,59.99768048528138,
24,ETW,ETW_24_oeverfloed_070319.wav,j,t,,,,,0,89,89,23,,,,,,,,,,,,,,,j,1,0.352372444991488,,,123,001,2019_Mar_20_1234,test_run,3.0.6,59.99768048528138,
71,EFW,EFW_41_infinna_070319.wav,j,t,,,,,0,90,90,70,,,,,,,,,,,,,,,j,1,0.5361701349902432,,,123,001,2019_Mar_20_1234,test_run,3.0.6,59.99768048528138,
114,ENW,ENW_24_samjoner_150219.wav,n,t,,,,,0,91,91,113,,,,,,,,,,,,,,,n,1,0.41968884199741296,,,123,001,2019_Mar_20_1234,test_run,3.0.6,59.99768048528138,
99,ENW,ENW_9_samlemor_150219.wav,n,t,,,,,0,92,92,98,,,,,,,,,,,,,,,n,1,0.3858735550020356,,,123,001,2019_Mar_20_1234,test_run,3.0.6,59.99768048528138,
68,EFW,EFW_38_foerefoell_070319.wav,j,t,,,,,0,93,93,67,,,,,,,,,,,,,,,j,1,0.30288568598916754,,,123,001,2019_Mar_20_1234,test_run,3.0.6,59.99768048528138,
165,ENW,ENW_75_foarskining_150219.wav,n,t,,,,,0,94,94,164,,,,,,,,,,,,,,,n,1,0.28559192799730226,,,123,001,2019_Mar_20_1234,test_run,3.0.6,59.99768048528138,
164,ENW,ENW_74_malsera_150219.wav,n,t,,,,,0,95,95,163,,,,,,,,,,,,,,,n,1,1.2696691479941364,,,123,001,2019_Mar_20_1234,test_run,3.0.6,59.99768048528138,
30,ETW,ETW_30_oeverlevnad_070319.wav,j,t,,,,,0,96,96,29,,,,,,,,,,,,,,,j,1,0.302259657997638,,,123,001,2019_Mar_20_1234,test_run,3.0.6,59.99768048528138,
177,ENW,ENW_87_kloavare_150219.wav,n,t,,,,,0,97,97,176,,,,,,,,,,,,,,,n,1,0.23562984200543724,,,123,001,2019_Mar_20_1234,test_run,3.0.6,59.99768048528138,
73,EFW,EFW_43_halvoar_070319.wav,j,t,,,,,0,98,98,72,,,,,,,,,,,,,,,n,0,0.41994925498147495,,,123,001,2019_Mar_20_1234,test_run,3.0.6,59.99768048528138,
58,EFW,EFW_28_olja_070319.wav,j,t,,,,,0,99,99,57,,,,,,,,,,,,,,,j,1,0.2523285629868042,,,123,001,2019_Mar_20_1234,test_run,3.0.6,59.99768048528138,
82,EFW,EFW_52_framhoalla_070319.wav,j,t,,,,,0,100,100,81,,,,,,,,,,,,,,,j,1,0.41917993198148906,,,123,001,2019_Mar_20_1234,test_run,3.0.6,59.99768048528138,
129,ENW,ENW_39_ljusonar_150219.wav,n,t,,,,,0,101,101,128,,,,,,,,,,,,,,,n,1,0.7855549160158262,,,123,001,2019_Mar_20_1234,test_run,3.0.6,59.99768048528138,
46,EFW,EFW_16_lyssna_070319.wav,j,t,,,,,0,102,102,45,,,,,,,,,,,,,,,j,1,0.43651712499558926,,,123,001,2019_Mar_20_1234,test_run,3.0.6,59.99768048528138,
60,EFW,EFW_30_officiella_070319.wav,j,t,,,,,0,103,103,59,,,,,,,,,,,,,,,j,1,0.38615078100701794,,,123,001,2019_Mar_20_1234,test_run,3.0.6,59.99768048528138,
172,ENW,ENW_82_värskappa_150219.wav,n,t,,,,,0,104,104,171,,,,,,,,,,,,,,,n,1,0.3022030320134945,,,123,001,2019_Mar_20_1234,test_run,3.0.6,59.99768048528138,
1,ETW,ETW_1_oskuld_070319.wav,j,t,,,,,0,105,105,0,,,,,,,,,,,,,,,j,1,0.30051522600115277,,,123,001,2019_Mar_20_1234,test_run,3.0.6,59.99768048528138,
15,ETW,ETW_15_knivsudd_070319.wav,j,t,,,,,0,106,106,14,,,,,,,,,,,,,,,n,0,0.4023519759939518,,,123,001,2019_Mar_20_1234,test_run,3.0.6,59.99768048528138,
134,ENW,ENW_44_inlivna_150219.wav,n,t,,,,,0,107,107,133,,,,,,,,,,,,,,,n,1,1.3523296439961996,,,123,001,2019_Mar_20_1234,test_run,3.0.6,59.99768048528138,
176,ENW,ENW_86_heloppsin_150219.wav,n,t,,,,,0,108,108,175,,,,,,,,,,,,,,,n,1,0.4696145709895063,,,123,001,2019_Mar_20_1234,test_run,3.0.6,59.99768048528138,
179,ENW,ENW_89_mikenspoan_150219.wav,n,t,,,,,0,109,109,178,,,,,,,,,,,,,,,n,1,0.43581286701373756,,,123,001,2019_Mar_20_1234,test_run,3.0.6,59.99768048528138,
25,ETW,ETW_25_mikrosekund_070319.wav,j,t,,,,,0,110,110,24,,,,,,,,,,,,,,,j,1,0.5366001749935094,,,123,001,2019_Mar_20_1234,test_run,3.0.6,59.99768048528138,
111,ENW,ENW_21_tjulning_150219.wav,n,t,,,,,0,111,111,110,,,,,,,,,,,,,,,n,1,0.4356538189749699,,,123,001,2019_Mar_20_1234,test_run,3.0.6,59.99768048528138,
51,EFW,EFW_21_varierar_070319.wav,j,t,,,,,0,112,112,50,,,,,,,,,,,,,,,j,1,1.1525481909920927,,,123,001,2019_Mar_20_1234,test_run,3.0.6,59.99768048528138,
156,ENW,ENW_66_voarsmenar_150219.wav,n,t,,,,,0,113,113,155,,,,,,,,,,,,,,,n,1,0.2855579009919893,,,123,001,2019_Mar_20_1234,test_run,3.0.6,59.99768048528138,
4,ETW,ETW_4_livraadd_070319.wav,j,t,,,,,0,114,114,3,,,,,,,,,,,,,,,j,1,0.3338091720070224,,,123,001,2019_Mar_20_1234,test_run,3.0.6,59.99768048528138,
168,ENW,ENW_78_morvinder_150219.wav,n,t,,,,,0,115,115,167,,,,,,,,,,,,,,,n,1,0.41908006198354997,,,123,001,2019_Mar_20_1234,test_run,3.0.6,59.99768048528138,
42,EFW,EFW_12_foeremoal_070319.wav,j,t,,,,,0,116,116,41,,,,,,,,,,,,,,,j,1,0.33551069401437417,,,123,001,2019_Mar_20_1234,test_run,3.0.6,59.99768048528138,
148,ENW,ENW_58_malvossa_150219.wav,n,t,,,,,0,117,117,147,,,,,,,,,,,,,,,n,1,0.31948030801140703,,,123,001,2019_Mar_20_1234,test_run,3.0.6,59.99768048528138,
162,ENW,ENW_72_urskecken_150219.wav,n,t,,,,,0,118,118,161,,,,,,,,,,,,,,,n,1,0.3858494960004464,,,123,001,2019_Mar_20_1234,test_run,3.0.6,59.99768048528138,
95,ENW,ENW_5_spoamisk_150219.wav,n,t,,,,,0,119,119,94,,,,,,,,,,,,,,,n,1,0.35228536700014956,,,123,001,2019_Mar_20_1234,test_run,3.0.6,59.99768048528138,
92,ENW,ENW_2_overralka_150219.wav,n,t,,,,,0,120,120,91,,,,,,,,,,,,,,,n,1,0.43619419599417597,,,123,001,2019_Mar_20_1234,test_run,3.0.6,59.99768048528138,
77,EFW,EFW_47_invoanare_070319.wav,j,t,,,,,0,121,121,76,,,,,,,,,,,,,,,j,1,0.4529312630183995,,,123,001,2019_Mar_20_1234,test_run,3.0.6,59.99768048528138,
136,ENW,ENW_46_pommera_150219.wav,n,t,,,,,0,122,122,135,,,,,,,,,,,,,,,n,1,0.36971638098475523,,,123,001,2019_Mar_20_1234,test_run,3.0.6,59.99768048528138,
167,ENW,ENW_77_somfera_150219.wav,n,t,,,,,0,123,123,166,,,,,,,,,,,,,,,n,1,0.40221320700948127,,,123,001,2019_Mar_20_1234,test_run,3.0.6,59.99768048528138,
70,EFW,EFW_40_miljoner_070319.wav,j,t,,,,,0,124,124,69,,,,,,,,,,,,,,,j,1,0.41927265797858126,,,123,001,2019_Mar_20_1234,test_run,3.0.6,59.99768048528138,
85,EFW,EFW_55_oroar_070319.wav,j,t,,,,,0,125,125,84,,,,,,,,,,,,,,,j,1,0.4694713360222522,,,123,001,2019_Mar_20_1234,test_run,3.0.6,59.99768048528138,
106,ENW,ENW_16_rolinkar_150219.wav,n,t,,,,,0,126,126,105,,,,,,,,,,,,,,,n,1,0.3363361219817307,,,123,001,2019_Mar_20_1234,test_run,3.0.6,59.99768048528138,
67,EFW,EFW_37_foervisso_070319.wav,j,t,,,,,0,127,127,66,,,,,,,,,,,,,,,j,1,0.2857802999787964,,,123,001,2019_Mar_20_1234,test_run,3.0.6,59.99768048528138,
97,ENW,ENW_7_flasera_150219.wav,n,t,,,,,0,128,128,96,,,,,,,,,,,,,,,n,1,0.33577984099974856,,,123,001,2019_Mar_20_1234,test_run,3.0.6,59.99768048528138,
36,EFW,EFW_6_massa_070319.wav,j,t,,,,,0,129,129,35,,,,,,,,,,,,,,,j,1,0.25234070999431424,,,123,001,2019_Mar_20_1234,test_run,3.0.6,59.99768048528138,
116,ENW,ENW_26_anufera_150219.wav,n,t,,,,,0,130,130,115,,,,,,,,,,,,,,,n,1,0.4689637720002793,,,123,001,2019_Mar_20_1234,test_run,3.0.6,59.99768048528138,
65,EFW,EFW_35_affaarer_070319.wav,j,t,,,,,0,131,131,64,,,,,,,,,,,,,,,j,1,0.26886841500527225,,,123,001,2019_Mar_20_1234,test_run,3.0.6,59.99768048528138,
34,EFW,EFW_4_foerminska_070319.wav,j,t,,,,,0,132,132,33,,,,,,,,,,,,,,,j,1,0.2521370300091803,,,123,001,2019_Mar_20_1234,test_run,3.0.6,59.99768048528138,
109,ENW,ENW_19_morloren_150219.wav,n,t,,,,,0,133,133,108,,,,,,,,,,,,,,,n,1,0.302298353984952,,,123,001,2019_Mar_20_1234,test_run,3.0.6,59.99768048528138,
89,EFW,EFW_59_filosofin_070319.wav,j,t,,,,,0,134,134,88,,,,,,,,,,,,,,,j,1,0.36971507500857115,,,123,001,2019_Mar_20_1234,test_run,3.0.6,59.99768048528138,
83,EFW,EFW_53_sovrum_070319.wav,j,t,,,,,0,135,135,82,,,,,,,,,,,,,,,j,1,0.33554070300306194,,,123,001,2019_Mar_20_1234,test_run,3.0.6,59.99768048528138,
127,ENW,ENW_37_spallrivet_150219.wav,n,t,,,,,0,136,136,126,,,,,,,,,,,,,,,n,1,0.5364003469876479,,,123,001,2019_Mar_20_1234,test_run,3.0.6,59.99768048528138,
125,ENW,ENW_35_nymaljen_150219.wav,n,t,,,,,0,137,137,124,,,,,,,,,,,,,,,n,1,0.41950196100515313,,,123,001,2019_Mar_20_1234,test_run,3.0.6,59.99768048528138,
103,ENW,ENW_13_forvaron_150219.wav,n,t,,,,,0,138,138,102,,,,,,,,,,,,,,,n,1,0.419154171977425,,,123,001,2019_Mar_20_1234,test_run,3.0.6,59.99768048528138,
74,EFW,EFW_44_ljusa_070319.wav,j,t,,,,,0,139,139,73,,,,,,,,,,,,,,,j,1,0.35276495400466956,,,123,001,2019_Mar_20_1234,test_run,3.0.6,59.99768048528138,
123,ENW,ENW_33_froamation_150219.wav,n,t,,,,,0,140,140,122,,,,,,,,,,,,,,,n,1,0.35254898699349724,,,123,001,2019_Mar_20_1234,test_run,3.0.6,59.99768048528138,
101,ENW,ENW_11_fränna_150219.wav,n,t,,,,,0,141,141,100,,,,,,,,,,,,,,,n,1,0.468878504994791,,,123,001,2019_Mar_20_1234,test_run,3.0.6,59.99768048528138,
96,ENW,ENW_6_vilfroaser_150219.wav,n,t,,,,,0,142,142,95,,,,,,,,,,,,,,,n,1,0.436287546006497,,,123,001,2019_Mar_20_1234,test_run,3.0.6,59.99768048528138,
128,ENW,ENW_38_roakanier_150219.wav,n,t,,,,,0,143,143,127,,,,,,,,,,,,,,,n,1,0.3022862759826239,,,123,001,2019_Mar_20_1234,test_run,3.0.6,59.99768048528138,
32,EFW,EFW_2_snarare_070319.wav,j,t,,,,,0,144,144,31,,,,,,,,,,,,,,,j,1,0.2860824449744541,,,123,001,2019_Mar_20_1234,test_run,3.0.6,59.99768048528138,
170,ENW,ENW_80_tjarfera_150219.wav,n,t,,,,,0,145,145,169,,,,,,,,,,,,,,,n,1,0.3855905740056187,,,123,001,2019_Mar_20_1234,test_run,3.0.6,59.99768048528138,
161,ENW,ENW_71_forskäckla_150219.wav,n,t,,,,,0,146,146,160,,,,,,,,,,,,,,,n,1,0.26895129898912273,,,123,001,2019_Mar_20_1234,test_run,3.0.6,59.99768048528138,
138,ENW,ENW_48_skyjamsen_150219.wav,n,t,,,,,0,147,147,137,,,,,,,,,,,,,,,n,1,0.26889242700417526,,,123,001,2019_Mar_20_1234,test_run,3.0.6,59.99768048528138,
86,EFW,EFW_56_mormor_070319.wav,j,t,,,,,0,148,148,85,,,,,,,,,,,,,,,j,1,0.31899644699296914,,,123,001,2019_Mar_20_1234,test_run,3.0.6,59.99768048528138,
153,ENW,ENW_63_femyrisk_150219.wav,n,t,,,,,0,149,149,152,,,,,,,,,,,,,,,n,1,0.35062920302152634,,,123,001,2019_Mar_20_1234,test_run,3.0.6,59.99768048528138,
16,ETW,ETW_16_episod_070319.wav,j,t,,,,,0,150,150,15,,,,,,,,,,,,,,,j,1,0.3024772039789241,,,123,001,2019_Mar_20_1234,test_run,3.0.6,59.99768048528138,
19,ETW,ETW_19_saallskapshund_070319.wav,j,t,,,,,0,151,151,18,,,,,,,,,,,,,,,j,1,0.48572694600443356,,,123,001,2019_Mar_20_1234,test_run,3.0.6,59.99768048528138,
163,ENW,ENW_73_vimmankalla_150219.wav,n,t,,,,,0,152,152,162,,,,,,,,,,,,,,,n,1,1.1357908470090479,,,123,001,2019_Mar_20_1234,test_run,3.0.6,59.99768048528138,
8,ETW,ETW_8_samfund_070319.wav,j,t,,,,,0,153,153,7,,,,,,,,,,,,,,,j,1,0.28580426902044564,,,123,001,2019_Mar_20_1234,test_run,3.0.6,59.99768048528138,
87,EFW,EFW_57_loenerna_070319.wav,j,t,,,,,0,154,154,86,,,,,,,,,,,,,,,j,1,0.2697274620004464,,,123,001,2019_Mar_20_1234,test_run,3.0.6,59.99768048528138,
13,ETW,ETW_13_oevervoald_070319.wav,j,t,,,,,0,155,155,12,,,,,,,,,,,,,,,j,1,0.3192987040092703,,,123,001,2019_Mar_20_1234,test_run,3.0.6,59.99768048528138,
14,ETW,ETW_14_myriad_070319.wav,j,t,,,,,0,156,156,13,,,,,,,,,,,,,,,n,0,0.3522981069982052,,,123,001,2019_Mar_20_1234,test_run,3.0.6,59.99768048528138,
3,ETW,ETW_3_choklad_070319.wav,j,t,,,,,0,157,157,2,,,,,,,,,,,,,,,j,1,0.26885607300209813,,,123,001,2019_Mar_20_1234,test_run,3.0.6,59.99768048528138,
12,ETW,ETW_12_offerlund_070319.wav,j,t,,,,,0,158,158,11,,,,,,,,,,,,,,,j,1,0.3030260619998444,,,123,001,2019_Mar_20_1234,test_run,3.0.6,59.99768048528138,
140,ENW,ENW_50_omsänare_150219.wav,n,t,,,,,0,159,159,139,,,,,,,,,,,,,,,n,1,0.2861896470130887,,,123,001,2019_Mar_20_1234,test_run,3.0.6,59.99768048528138,
62,EFW,EFW_32_fyller_070319.wav,j,t,,,,,0,160,160,61,,,,,,,,,,,,,,,j,1,0.269526224990841,,,123,001,2019_Mar_20_1234,test_run,3.0.6,59.99768048528138,
159,ENW,ENW_69_mjohusa_150219.wav,n,t,,,,,0,161,161,158,,,,,,,,,,,,,,,n,1,0.2688712039962411,,,123,001,2019_Mar_20_1234,test_run,3.0.6,59.99768048528138,
174,ENW,ENW_84_hurmarna_150219.wav,n,t,,,,,0,162,162,173,,,,,,,,,,,,,,,n,1,0.38634856799035333,,,123,001,2019_Mar_20_1234,test_run,3.0.6,59.99768048528138,
39,EFW,EFW_9_infektion_070319.wav,j,t,,,,,0,163,163,38,,,,,,,,,,,,,,,j,1,0.7024748539843131,,,123,001,2019_Mar_20_1234,test_run,3.0.6,59.99768048528138,
49,EFW,EFW_19_roerelse_070319.wav,j,t,,,,,0,164,164,48,,,,,,,,,,,,,,,j,1,0.38551571700372733,,,123,001,2019_Mar_20_1234,test_run,3.0.6,59.99768048528138,
160,ENW,ENW_70_roklarner_150219.wav,n,t,,,,,0,165,165,159,,,,,,,,,,,,,,,n,1,0.3694748320267536,,,123,001,2019_Mar_20_1234,test_run,3.0.6,59.99768048528138,
59,EFW,EFW_29_formen_070319.wav,j,t,,,,,0,166,166,58,,,,,,,,,,,,,,,j,1,0.35258705899468623,,,123,001,2019_Mar_20_1234,test_run,3.0.6,59.99768048528138,
61,EFW,EFW_31_jaamfoera_070319.wav,j,t,,,,,0,167,167,60,,,,,,,,,,,,,,,j,1,0.3527172649919521,,,123,001,2019_Mar_20_1234,test_run,3.0.6,59.99768048528138,
2,ETW,ETW_2_skillnad_070319.wav,j,t,,,,,0,168,168,1,,,,,,,,,,,,,,,j,1,0.3169723229948431,,,123,001,2019_Mar_20_1234,test_run,3.0.6,59.99768048528138,
107,ENW,ENW_17_kopynnor_150219.wav,n,t,,,,,0,169,169,106,,,,,,,,,,,,,,,n,1,0.585784485010663,,,123,001,2019_Mar_20_1234,test_run,3.0.6,59.99768048528138,
64,EFW,EFW_34_sommar_070319.wav,j,t,,,,,0,170,170,63,,,,,,,,,,,,,,,j,1,0.6022971310012508,,,123,001,2019_Mar_20_1234,test_run,3.0.6,59.99768048528138,
7,ETW,ETW_7_hemland_070319.wav,j,t,,,,,0,171,171,6,,,,,,,,,,,,,,,j,1,0.5027237090107519,,,123,001,2019_Mar_20_1234,test_run,3.0.6,59.99768048528138,
150,ENW,ENW_60_lackpenar_150219.wav,n,t,,,,,0,172,172,149,,,,,,,,,,,,,,,n,1,0.3691919480042998,,,123,001,2019_Mar_20_1234,test_run,3.0.6,59.99768048528138,
84,EFW,EFW_54_romaner_070319.wav,j,t,,,,,0,173,173,83,,,,,,,,,,,,,,,j,1,0.45053166200523265,,,123,001,2019_Mar_20_1234,test_run,3.0.6,59.99768048528138,
29,ETW,ETW_29_oeverhuvud_070319.wav,j,t,,,,,0,174,174,28,,,,,,,,,,,,,,,j,1,0.5024288250133395,,,123,001,2019_Mar_20_1234,test_run,3.0.6,59.99768048528138,
28,ETW,ETW_28_kommunalroad_070319.wav,j,t,,,,,0,175,175,27,,,,,,,,,,,,,,,j,1,0.38660502899438143,,,123,001,2019_Mar_20_1234,test_run,3.0.6,59.99768048528138,
66,EFW,EFW_36_haarifroan_070319.wav,j,t,,,,,0,176,176,65,,,,,,,,,,,,,,,j,1,0.30257999000605196,,,123,001,2019_Mar_20_1234,test_run,3.0.6,59.99768048528138,
171,ENW,ENW_81_persifera_150219.wav,n,t,,,,,0,177,177,170,,,,,,,,,,,,,,,n,1,0.3337250189797487,,,123,001,2019_Mar_20_1234,test_run,3.0.6,59.99768048528138,
69,EFW,EFW_39_foersvara_070319.wav,j,t,,,,,0,178,178,68,,,,,,,,,,,,,,,j,1,0.28589990199543536,,,123,001,2019_Mar_20_1234,test_run,3.0.6,59.99768048528138,
139,ENW,ENW_49_hälskrena_150219.wav,n,t,,,,,0,179,179,138,,,,,,,,,,,,,,,n,1,0.2861396499793045,,,123,001,2019_Mar_20_1234,test_run,3.0.6,59.99768048528138,
31,TTF,TTF_31_brott_070319.wav,,,1,rating_d_final.csv,d,final,,,,,0,0,0,0,0,0,0,0,0,0,0,30,,,,,,5,6.404,123,001,2019_Mar_20_1234,test_run,3.0.6,59.99768048528138,
17,TTF,TTF_17_sket_070319.wav,,,1,rating_d_final.csv,d,final,,,,,0,0,0,0,0,0,0,0,0,1,1,16,,,,,,2,6.387,123,001,2019_Mar_20_1234,test_run,3.0.6,59.99768048528138,
28,TTF,TTF_28_brant_070319.wav,,,1,rating_d_final.csv,d,final,,,,,0,0,0,0,0,0,0,0,0,2,2,27,,,,,,3,2.187,123,001,2019_Mar_20_1234,test_run,3.0.6,59.99768048528138,
7,TDF,TDF_7_vid_070319.wav,,,1,rating_d_final.csv,d,final,,,,,0,0,0,0,0,0,0,0,0,3,3,6,,,,,,4,3.603,123,001,2019_Mar_20_1234,test_run,3.0.6,59.99768048528138,
1,TDF,TDF_1_rid_070319.wav,,,1,rating_d_final.csv,d,final,,,,,0,0,0,0,0,0,0,0,0,4,4,0,,,,,,5,0.887,123,001,2019_Mar_20_1234,test_run,3.0.6,59.99768048528138,
4,TDF,TDF_4_rod_070319.wav,,,1,rating_d_final.csv,d,final,,,,,0,0,0,0,0,0,0,0,0,5,5,3,,,,,,5,3.17,123,001,2019_Mar_20_1234,test_run,3.0.6,59.99768048528138,
19,TTF,TTF_19_skoet_070319.wav,,,1,rating_d_final.csv,d,final,,,,,0,0,0,0,0,0,0,0,0,6,6,18,,,,,,1,0.771,123,001,2019_Mar_20_1234,test_run,3.0.6,59.99768048528138,
11,TDF,TDF_11_svid_070319.wav,,,1,rating_d_final.csv,d,final,,,,,0,0,0,0,0,0,0,0,0,7,7,10,,,,,,4,0.586,123,001,2019_Mar_20_1234,test_run,3.0.6,59.99768048528138,
9,TDF,TDF_9_bod_070319.wav,,,1,rating_d_final.csv,d,final,,,,,0,0,0,0,0,0,0,0,0,8,8,8,,,,,,3,0.487,123,001,2019_Mar_20_1234,test_run,3.0.6,59.99768048528138,
10,TDF,TDF_10_brod_070319.wav,,,1,rating_d_final.csv,d,final,,,,,0,0,0,0,0,0,0,0,0,9,9,9,,,,,,3,0.938,123,001,2019_Mar_20_1234,test_run,3.0.6,59.99768048528138,
24,TTF,TTF_24_smit_070319.wav,,,1,rating_d_final.csv,d,final,,,,,0,0,0,0,0,0,0,0,0,10,10,23,,,,,,2,1.637,123,001,2019_Mar_20_1234,test_run,3.0.6,59.99768048528138,
5,TDF,TDF_5_voad_070319.wav,,,1,rating_d_final.csv,d,final,,,,,0,0,0,0,0,0,0,0,0,11,11,4,,,,,,6,1.938,123,001,2019_Mar_20_1234,test_run,3.0.6,59.99768048528138,
3,TDF,TDF_3_raad_070319.wav,,,1,rating_d_final.csv,d,final,,,,,0,0,0,0,0,0,0,0,0,12,12,2,,,,,,7,2.187,123,001,2019_Mar_20_1234,test_run,3.0.6,59.99768048528138,
8,TDF,TDF_8_nod_070319.wav,,,1,rating_d_final.csv,d,final,,,,,0,0,0,0,0,0,0,0,0,13,13,7,,,,,,5,0.487,123,001,2019_Mar_20_1234,test_run,3.0.6,59.99768048528138,
21,TTF,TTF_21_gjoet_070319.wav,,,1,rating_d_final.csv,d,final,,,,,0,0,0,0,0,0,0,0,0,14,14,20,,,,,,1,0.704,123,001,2019_Mar_20_1234,test_run,3.0.6,59.99768048528138,
25,TTF,TTF_25_synt_070319.wav,,,1,rating_d_final.csv,d,final,,,,,0,0,0,0,0,0,0,0,0,15,15,24,,,,,,1,0.804,123,001,2019_Mar_20_1234,test_run,3.0.6,59.99768048528138,
16,TDF,TDF_16_fond_070319.wav,,,1,rating_d_final.csv,d,final,,,,,0,0,0,0,0,0,0,0,0,16,16,15,,,,,,6,1.12,123,001,2019_Mar_20_1234,test_run,3.0.6,59.99768048528138,
15,TDF,TDF_15_nod_070319.wav,,,1,rating_d_final.csv,d,final,,,,,0,0,0,0,0,0,0,0,0,17,17,14,,,,,,7,2.12,123,001,2019_Mar_20_1234,test_run,3.0.6,59.99768048528138,
29,TTF,TTF_29_bett_070319.wav,,,1,rating_d_final.csv,d,final,,,,,0,0,0,0,0,0,0,0,0,18,18,28,,,,,,1,0.554,123,001,2019_Mar_20_1234,test_run,3.0.6,59.99768048528138,
6,TDF,TDF_6_voard_070319.wav,,,1,rating_d_final.csv,d,final,,,,,0,0,0,0,0,0,0,0,0,19,19,5,,,,,,4,1.003,123,001,2019_Mar_20_1234,test_run,3.0.6,59.99768048528138,
26,TTF,TTF_26_rymt_070319.wav,,,1,rating_d_final.csv,d,final,,,,,0,0,0,0,0,0,0,0,0,20,20,25,,,,,,2,1.986,123,001,2019_Mar_20_1234,test_run,3.0.6,59.99768048528138,
23,TTF,TTF_23_hut_070319.wav,,,1,rating_d_final.csv,d,final,,,,,0,0,0,0,0,0,0,0,0,21,21,22,,,,,,1,0.554,123,001,2019_Mar_20_1234,test_run,3.0.6,59.99768048528138,
20,TTF,TTF_20_got_070319.wav,,,1,rating_d_final.csv,d,final,,,,,0,0,0,0,0,0,0,0,0,22,22,19,,,,,,1,1.804,123,001,2019_Mar_20_1234,test_run,3.0.6,59.99768048528138,
30,TTF,TTF_30_slatt_070319.wav,,,1,rating_d_final.csv,d,final,,,,,0,0,0,0,0,0,0,0,0,23,23,29,,,,,,1,0.521,123,001,2019_Mar_20_1234,test_run,3.0.6,59.99768048528138,
32,TTF,TTF_32_hoart_070319.wav,,,1,rating_d_final.csv,d,final,,,,,0,0,0,0,0,0,0,0,0,24,24,31,,,,,,1,0.904,123,001,2019_Mar_20_1234,test_run,3.0.6,59.99768048528138,
22,TTF,TTF_22_het_070319.wav,,,1,rating_d_final.csv,d,final,,,,,0,0,0,0,0,0,0,0,0,25,25,21,,,,,,2,0.72,123,001,2019_Mar_20_1234,test_run,3.0.6,59.99768048528138,
14,TDF,TDF_14_mod_070319.wav,,,1,rating_d_final.csv,d,final,,,,,0,0,0,0,0,0,0,0,0,26,26,13,,,,,,5,0.953,123,001,2019_Mar_20_1234,test_run,3.0.6,59.99768048528138,
27,TTF,TTF_27_sant_070319.wav,,,1,rating_d_final.csv,d,final,,,,,0,0,0,0,0,0,0,0,0,27,27,26,,,,,,1,0.604,123,001,2019_Mar_20_1234,test_run,3.0.6,59.99768048528138,
12,TDF,TDF_12_smed_070319.wav,,,1,rating_d_final.csv,d,final,,,,,0,0,0,0,0,0,0,0,0,28,28,11,,,,,,6,1.037,123,001,2019_Mar_20_1234,test_run,3.0.6,59.99768048528138,
2,TDF,TDF_2_ved_070319.wav,,,1,rating_d_final.csv,d,final,,,,,0,0,0,0,0,0,0,0,0,29,29,1,,,,,,5,0.921,123,001,2019_Mar_20_1234,test_run,3.0.6,59.99768048528138,
18,TTF,TTF_18_skjut_070319.wav,,,1,rating_d_final.csv,d,final,,,,,0,0,0,0,0,0,0,0,0,30,30,17,,,,,,1,0.47,123,001,2019_Mar_20_1234,test_run,3.0.6,59.99768048528138,
13,TDF,TDF_13_ljud_070319.wav,,,1,rating_d_final.csv,d,final,,,,,0,0,0,0,0,0,0,0,0,31,31,12,,,,,,3,0.937,123,001,2019_Mar_20_1234,test_run,3.0.6,59.99768048528138,
24,TDF,TDF_24_smid_070319.wav,,,1,rating_t_final.csv,t,final,,,,,0,0,0,0,0,1,1,1,0,0,0,23,,,,,,4,2.204,123,001,2019_Mar_20_1234,test_run,3.0.6,59.99768048528138,
21,TDF,TDF_21_ljod _070319.wav,,,1,rating_t_final.csv,t,final,,,,,0,0,0,0,0,1,1,1,0,1,1,20,,,,,,5,0.753,123,001,2019_Mar_20_1234,test_run,3.0.6,59.99768048528138,
29,TDF,TDF_29_baadd_070319.wav,,,1,rating_t_final.csv,t,final,,,,,0,0,0,0,0,1,1,1,0,2,2,28,,,,,,6,2.704,123,001,2019_Mar_20_1234,test_run,3.0.6,59.99768048528138,
19,TDF,TDF_19_sjod_070319.wav,,,1,rating_t_final.csv,t,final,,,,,0,0,0,0,0,1,1,1,0,3,3,18,,,,,,4,1.187,123,001,2019_Mar_20_1234,test_run,3.0.6,59.99768048528138,
10,TTF,TTF_10_broet_070319.wav,,,1,rating_t_final.csv,t,final,,,,,0,0,0,0,0,1,1,1,0,4,4,9,,,,,,6,2.153,123,001,2019_Mar_20_1234,test_run,3.0.6,59.99768048528138,
12,TTF,TTF_12_smet_070319.wav,,,1,rating_t_final.csv,t,final,,,,,0,0,0,0,0,1,1,1,0,5,5,11,,,,,,7,1.604,123,001,2019_Mar_20_1234,test_run,3.0.6,59.99768048528138,
8,TTF,TTF_8_noet_070319.wav,,,1,rating_t_final.csv,t,final,,,,,0,0,0,0,0,1,1,1,0,6,6,7,,,,,,6,0.771,123,001,2019_Mar_20_1234,test_run,3.0.6,59.99768048528138,
5,TTF,TTF_5_voat_070319.wav,,,1,rating_t_final.csv,t,final,,,,,0,0,0,0,0,1,1,1,0,7,7,4,,,,,,7,0.487,123,001,2019_Mar_20_1234,test_run,3.0.6,59.99768048528138,
1,TTF,TTF_1_rit_070319.wav,,,1,rating_t_final.csv,t,final,,,,,0,0,0,0,0,1,1,1,0,8,8,0,,,,,,7,0.503,123,001,2019_Mar_20_1234,test_run,3.0.6,59.99768048528138,
17,TDF,TDF_17_sked_070319.wav,,,1,rating_t_final.csv,t,final,,,,,0,0,0,0,0,1,1,1,0,9,9,16,,,,,,3,2.554,123,001,2019_Mar_20_1234,test_run,3.0.6,59.99768048528138,
13,TTF,TTF_13_gjut_070319.wav,,,1,rating_t_final.csv,t,final,,,,,0,0,0,0,0,1,1,1,0,10,10,12,,,,,,4,0.837,123,001,2019_Mar_20_1234,test_run,3.0.6,59.99768048528138,
20,TDF,TDF_20_god_070319.wav,,,1,rating_t_final.csv,t,final,,,,,0,0,0,0,0,1,1,1,0,11,11,19,,,,,,3,1.838,123,001,2019_Mar_20_1234,test_run,3.0.6,59.99768048528138,
31,TDF,TDF_31_brodd_070319.wav,,,1,rating_t_final.csv,t,final,,,,,0,0,0,0,0,1,1,1,0,12,12,30,,,,,,4,1.721,123,001,2019_Mar_20_1234,test_run,3.0.6,59.99768048528138,
16,TTF,TTF_16_font_070319.wav,,,1,rating_t_final.csv,t,final,,,,,0,0,0,0,0,1,1,1,0,13,13,15,,,,,,5,1.254,123,001,2019_Mar_20_1234,test_run,3.0.6,59.99768048528138,
30,TDF,TDF_30_sladd_070319.wav,,,1,rating_t_final.csv,t,final,,,,,0,0,0,0,0,1,1,1,0,14,14,29,,,,,,2,1.103,123,001,2019_Mar_20_1234,test_run,3.0.6,59.99768048528138,
15,TTF,TTF_15_not_070319.wav,,,1,rating_t_final.csv,t,final,,,,,0,0,0,0,0,1,1,1,0,15,15,14,,,,,,5,1.037,123,001,2019_Mar_20_1234,test_run,3.0.6,59.99768048528138,
7,TTF,TTF_7_vit_070319.wav,,,1,rating_t_final.csv,t,final,,,,,0,0,0,0,0,1,1,1,0,16,16,6,,,,,,6,0.688,123,001,2019_Mar_20_1234,test_run,3.0.6,59.99768048528138,
22,TDF,TDF_22_hed_070319.wav,,,1,rating_t_final.csv,t,final,,,,,0,0,0,0,0,1,1,1,0,17,17,21,,,,,,1,0.471,123,001,2019_Mar_20_1234,test_run,3.0.6,59.99768048528138,
9,TTF,TTF_9_bot_070319.wav,,,1,rating_t_final.csv,t,final,,,,,0,0,0,0,0,1,1,1,0,18,18,8,,,,,,4,1.221,123,001,2019_Mar_20_1234,test_run,3.0.6,59.99768048528138,
28,TDF,TDF_28_brand_070319.wav,,,1,rating_t_final.csv,t,final,,,,,0,0,0,0,0,1,1,1,0,19,19,27,,,,,,5,4.454,123,001,2019_Mar_20_1234,test_run,3.0.6,59.99768048528138,
23,TDF,TDF_23_hud_070319.wav,,,1,rating_t_final.csv,t,final,,,,,0,0,0,0,0,1,1,1,0,20,20,22,,,,,,1,0.537,123,001,2019_Mar_20_1234,test_run,3.0.6,59.99768048528138,
27,TDF,TDF_27_sand_070319.wav,,,1,rating_t_final.csv,t,final,,,,,0,0,0,0,0,1,1,1,0,21,21,26,,,,,,3,2.421,123,001,2019_Mar_20_1234,test_run,3.0.6,59.99768048528138,
25,TDF,TDF_25_synd_070319.wav,,,1,rating_t_final.csv,t,final,,,,,0,0,0,0,0,1,1,1,0,22,22,24,,,,,,1,0.437,123,001,2019_Mar_20_1234,test_run,3.0.6,59.99768048528138,
18,TDF,TDF_18_sjud_070319.wav,,,1,rating_t_final.csv,t,final,,,,,0,0,0,0,0,1,1,1,0,23,23,17,,,,,,1,0.821,123,001,2019_Mar_20_1234,test_run,3.0.6,59.99768048528138,
14,TTF,TTF_14_mot_070319.wav,,,1,rating_t_final.csv,t,final,,,,,0,0,0,0,0,1,1,1,0,24,24,13,,,,,,6,2.104,123,001,2019_Mar_20_1234,test_run,3.0.6,59.99768048528138,
32,TDF,TDF_32_hoard_070319.wav,,,1,rating_t_final.csv,t,final,,,,,0,0,0,0,0,1,1,1,0,25,25,31,,,,,,4,0.587,123,001,2019_Mar_20_1234,test_run,3.0.6,59.99768048528138,
4,TTF,TTF_4_roet_070319.wav,,,1,rating_t_final.csv,t,final,,,,,0,0,0,0,0,1,1,1,0,26,26,3,,,,,,3,1.42,123,001,2019_Mar_20_1234,test_run,3.0.6,59.99768048528138,
2,TTF,TTF_2_vet_070319.wav,,,1,rating_t_final.csv,t,final,,,,,0,0,0,0,0,1,1,1,0,27,27,1,,,,,,6,0.654,123,001,2019_Mar_20_1234,test_run,3.0.6,59.99768048528138,
11,TTF,TTF_11_svit_070319.wav,,,1,rating_t_final.csv,t,final,,,,,0,0,0,0,0,1,1,1,0,28,28,10,,,,,,7,2.221,123,001,2019_Mar_20_1234,test_run,3.0.6,59.99768048528138,
3,TTF,TTF_3_raat_070319.wav,,,1,rating_t_final.csv,t,final,,,,,0,0,0,0,0,1,1,1,0,29,29,2,,,,,,7,0.687,123,001,2019_Mar_20_1234,test_run,3.0.6,59.99768048528138,
6,TTF,TTF_6_voart_070319.wav,,,1,rating_t_final.csv,t,final,,,,,0,0,0,0,0,1,1,1,0,30,30,5,,,,,,6,1.004,123,001,2019_Mar_20_1234,test_run,3.0.6,59.99768048528138,
26,TDF,TDF_26_rymd_070319.wav,,,1,rating_t_final.csv,t,final,,,,,0,0,0,0,0,1,1,1,0,31,31,25,,,,,,3,2.253,123,001,2019_Mar_20_1234,test_run,3.0.6,59.99768048528138,
22,TDI,TDI_22_dy_150219.wav,,,2,rating_t_initial.csv,t,initial,,,,,0,1,1,1,0,0,0,1,0,0,0,21,,,,,,1,2.371,123,001,2019_Mar_20_1234,test_run,3.0.6,59.99768048528138,
26,TDI,TDI_26_doe_150219.wav,,,2,rating_t_initial.csv,t,initial,,,,,0,1,1,1,0,0,0,1,0,1,1,25,,,,,,1,0.688,123,001,2019_Mar_20_1234,test_run,3.0.6,59.99768048528138,
6,TTI,TTI_6_teg_150219.wav,,,2,rating_t_initial.csv,t,initial,,,,,0,1,1,1,0,0,0,1,0,2,2,5,,,,,,1,1.57,123,001,2019_Mar_20_1234,test_run,3.0.6,59.99768048528138,
12,TTI,TTI_12_toa_150219.wav,,,2,rating_t_initial.csv,t,initial,,,,,0,1,1,1,0,0,0,1,0,3,3,11,,,,,,2,1.803,123,001,2019_Mar_20_1234,test_run,3.0.6,59.99768048528138,
9,TTI,TTI_9_till_150219.wav,,,2,rating_t_initial.csv,t,initial,,,,,0,1,1,1,0,0,0,1,0,4,4,8,,,,,,1,0.553,123,001,2019_Mar_20_1234,test_run,3.0.6,59.99768048528138,
15,TDI,TDI_15_dom_150219.wav,,,2,rating_t_initial.csv,t,initial,,,,,0,1,1,1,0,0,0,1,0,5,5,14,,,,,,1,1.004,123,001,2019_Mar_20_1234,test_run,3.0.6,59.99768048528138,
10,TTI,TTI_10_titt_150219.wav,,,2,rating_t_initial.csv,t,initial,,,,,0,1,1,1,0,0,0,1,0,6,6,9,,,,,,1,0.887,123,001,2019_Mar_20_1234,test_run,3.0.6,59.99768048528138,
24,TDI,TDI_24_daack_150219.wav,,,2,rating_t_initial.csv,t,initial,,,,,0,1,1,1,0,0,0,1,0,7,7,23,,,,,,1,0.804,123,001,2019_Mar_20_1234,test_run,3.0.6,59.99768048528138,
23,TDI,TDI_23_doa_150219.wav,,,2,rating_t_initial.csv,t,initial,,,,,0,1,1,1,0,0,0,1,0,8,8,22,,,,,,2,0.854,123,001,2019_Mar_20_1234,test_run,3.0.6,59.99768048528138,
20,TDI,TDI_20_dur_150219.wav,,,2,rating_t_initial.csv,t,initial,,,,,0,1,1,1,0,0,0,1,0,9,9,19,,,,,,1,0.72,123,001,2019_Mar_20_1234,test_run,3.0.6,59.99768048528138,
5,TTI,TTI_5_tass_150219.wav,,,2,rating_t_initial.csv,t,initial,,,,,0,1,1,1,0,0,0,1,0,10,10,4,,,,,,3,1.787,123,001,2019_Mar_20_1234,test_run,3.0.6,59.99768048528138,
13,TTI,TTI_13_tog_150219.wav,,,2,rating_t_initial.csv,t,initial,,,,,0,1,1,1,0,0,0,1,0,11,11,12,,,,,,4,0.404,123,001,2019_Mar_20_1234,test_run,3.0.6,59.99768048528138,
18,TDI,TDI_18_dum_150219.wav,,,2,rating_t_initial.csv,t,initial,,,,,0,1,1,1,0,0,0,1,0,12,12,17,,,,,,1,0.588,123,001,2019_Mar_20_1234,test_run,3.0.6,59.99768048528138,
8,TTI,TTI_8_tia_150219.wav,,,2,rating_t_initial.csv,t,initial,,,,,0,1,1,1,0,0,0,1,0,13,13,7,,,,,,6,0.787,123,001,2019_Mar_20_1234,test_run,3.0.6,59.99768048528138,
4,TTI,TTI_4_tam_150219.wav,,,2,rating_t_initial.csv,t,initial,,,,,0,1,1,1,0,0,0,1,0,14,14,3,,,,,,4,1.47,123,001,2019_Mar_20_1234,test_run,3.0.6,59.99768048528138,
7,TTI,TTI_7_tenn_150219.wav,,,2,rating_t_initial.csv,t,initial,,,,,0,1,1,1,0,0,0,1,0,15,15,6,,,,,,5,0.604,123,001,2019_Mar_20_1234,test_run,3.0.6,59.99768048528138,
21,TDI,TDI_21_dugg_150219.wav,,,2,rating_t_initial.csv,t,initial,,,,,0,1,1,1,0,0,0,1,0,16,16,20,,,,,,2,0.487,123,001,2019_Mar_20_1234,test_run,3.0.6,59.99768048528138,
16,TDI,TDI_16_don_150219.wav,,,2,rating_t_initial.csv,t,initial,,,,,0,1,1,1,0,0,0,1,0,17,17,15,,,,,,1,0.571,123,001,2019_Mar_20_1234,test_run,3.0.6,59.99768048528138,
27,TDI,TDI_27_doem_edit_150219.wav,,,2,rating_t_initial.csv,t,initial,,,,,0,1,1,1,0,0,0,1,0,18,18,26,,,,,,2,0.753,123,001,2019_Mar_20_1234,test_run,3.0.6,59.99768048528138,
3,TTI,TTI_3_tal_150219.wav,,,2,rating_t_initial.csv,t,initial,,,,,0,1,1,1,0,0,0,1,0,19,19,2,,,,,,4,1.471,123,001,2019_Mar_20_1234,test_run,3.0.6,59.99768048528138,
14,TTI,TTI_14_tok_150219.wav,,,2,rating_t_initial.csv,t,initial,,,,,0,1,1,1,0,0,0,1,0,20,20,13,,,,,,5,1.371,123,001,2019_Mar_20_1234,test_run,3.0.6,59.99768048528138,
11,TTI,TTI_11_tipp_150219.wav,,,2,rating_t_initial.csv,t,initial,,,,,0,1,1,1,0,0,0,1,0,21,21,10,,,,,,6,0.454,123,001,2019_Mar_20_1234,test_run,3.0.6,59.99768048528138,
2,TTI,TTI_2_tagg_150219.wav,,,2,rating_t_initial.csv,t,initial,,,,,0,1,1,1,0,0,0,1,0,22,22,1,,,,,,4,1.071,123,001,2019_Mar_20_1234,test_run,3.0.6,59.99768048528138,
25,TDI,TDI_25_daar_150219.wav,,,2,rating_t_initial.csv,t,initial,,,,,0,1,1,1,0,0,0,1,0,23,23,24,,,,,,1,1.088,123,001,2019_Mar_20_1234,test_run,3.0.6,59.99768048528138,
1,TTI,TTI_1_tag_150219.wav,,,2,rating_t_initial.csv,t,initial,,,,,0,1,1,1,0,0,0,1,0,24,24,0,,,,,,5,0.704,123,001,2019_Mar_20_1234,test_run,3.0.6,59.99768048528138,
19,TDI,TDI_19_dun_150219.wav,,,2,rating_t_initial.csv,t,initial,,,,,0,1,1,1,0,0,0,1,0,25,25,18,,,,,,2,0.788,123,001,2019_Mar_20_1234,test_run,3.0.6,59.99768048528138,
17,TDI,TDI_17_dopp_150219.wav,,,2,rating_t_initial.csv,t,initial,,,,,0,1,1,1,0,0,0,1,0,26,26,16,,,,,,1,0.703,123,001,2019_Mar_20_1234,test_run,3.0.6,59.99768048528138,
5,TDI,TDI_5_dass_150219.wav,,,2,rating_d_initial.csv,d,initial,,,,,0,1,1,1,0,1,1,0,0,0,0,4,,,,,,7,1.054,123,001,2019_Mar_20_1234,test_run,3.0.6,59.99768048528138,
24,TTI,TTI_24_taack_150219.wav,,,2,rating_d_initial.csv,d,initial,,,,,0,1,1,1,0,1,1,0,0,1,1,23,,,,,,3,0.553,123,001,2019_Mar_20_1234,test_run,3.0.6,59.99768048528138,
19,TTI,TTI_19_tun_150219.wav,,,2,rating_d_initial.csv,d,initial,,,,,0,1,1,1,0,1,1,0,0,2,2,18,,,,,,5,2.035,123,001,2019_Mar_20_1234,test_run,3.0.6,59.99768048528138,
20,TTI,TTI_20_tur_150219.wav,,,2,rating_d_initial.csv,d,initial,,,,,0,1,1,1,0,1,1,0,0,3,3,19,,,,,,5,1.754,123,001,2019_Mar_20_1234,test_run,3.0.6,59.99768048528138,
6,TDI,TDI_6_deg_150219.wav,,,2,rating_d_initial.csv,d,initial,,,,,0,1,1,1,0,1,1,0,0,4,4,5,,,,,,4,1.521,123,001,2019_Mar_20_1234,test_run,3.0.6,59.99768048528138,
2,TDI,TDI_2_dagg_150219.wav,,,2,rating_d_initial.csv,d,initial,,,,,0,1,1,1,0,1,1,0,0,5,5,1,,,,,,6,1.854,123,001,2019_Mar_20_1234,test_run,3.0.6,59.99768048528138,
26,TTI,TTI_26_toe_150219.wav,,,2,rating_d_initial.csv,d,initial,,,,,0,1,1,1,0,1,1,0,0,6,6,25,,,,,,3,1.937,123,001,2019_Mar_20_1234,test_run,3.0.6,59.99768048528138,
23,TTI,TTI_23_toa_150219.wav,,,2,rating_d_initial.csv,d,initial,,,,,0,1,1,1,0,1,1,0,0,7,7,22,,,,,,2,0.937,123,001,2019_Mar_20_1234,test_run,3.0.6,59.99768048528138,
10,TDI,TDI_10_ditt_150219.wav,,,2,rating_d_initial.csv,d,initial,,,,,0,1,1,1,0,1,1,0,0,8,8,9,,,,,,6,1.351,123,001,2019_Mar_20_1234,test_run,3.0.6,59.99768048528138,
14,TDI,TDI_14_dok_150219.wav,,,2,rating_d_initial.csv,d,initial,,,,,0,1,1,1,0,1,1,0,0,9,9,13,,,,,,5,1.121,123,001,2019_Mar_20_1234,test_run,3.0.6,59.99768048528138,
18,TTI,TTI_18_tum_150219.wav,,,2,rating_d_initial.csv,d,initial,,,,,0,1,1,1,0,1,1,0,0,10,10,17,,,,,,4,0.469,123,001,2019_Mar_20_1234,test_run,3.0.6,59.99768048528138,
15,TTI,TTI_15_tom_150219.wav,,,2,rating_d_initial.csv,d,initial,,,,,0,1,1,1,0,1,1,0,0,11,11,14,,,,,,2,1.737,123,001,2019_Mar_20_1234,test_run,3.0.6,59.99768048528138,
12,TDI,TDI_12_doa_150219.wav,,,2,rating_d_initial.csv,d,initial,,,,,0,1,1,1,0,1,1,0,0,12,12,11,,,,,,6,0.638,123,001,2019_Mar_20_1234,test_run,3.0.6,59.99768048528138,
9,TDI,TDI_9_dill_150219.wav,,,2,rating_d_initial.csv,d,initial,,,,,0,1,1,1,0,1,1,0,0,13,13,8,,,,,,7,1.787,123,001,2019_Mar_20_1234,test_run,3.0.6,59.99768048528138,
16,TTI,TTI_16_ton_150219.wav,,,2,rating_d_initial.csv,d,initial,,,,,0,1,1,1,0,1,1,0,0,14,14,15,,,,,,3,1.604,123,001,2019_Mar_20_1234,test_run,3.0.6,59.99768048528138,
4,TDI,TDI_4_dam_150219.wav,,,2,rating_d_initial.csv,d,initial,,,,,0,1,1,1,0,1,1,0,0,15,15,3,,,,,,7,0.586,123,001,2019_Mar_20_1234,test_run,3.0.6,59.99768048528138,
21,TTI,TTI_21_tugg_150219.wav,,,2,rating_d_initial.csv,d,initial,,,,,0,1,1,1,0,1,1,0,0,16,16,20,,,,,,2,1.288,123,001,2019_Mar_20_1234,test_run,3.0.6,59.99768048528138,
11,TDI,TDI_11_dipp_150219.wav,,,2,rating_d_initial.csv,d,initial,,,,,0,1,1,1,0,1,1,0,0,17,17,10,,,,,,6,0.704,123,001,2019_Mar_20_1234,test_run,3.0.6,59.99768048528138,
17,TTI,TTI_17_topp_150219.wav,,,2,rating_d_initial.csv,d,initial,,,,,0,1,1,1,0,1,1,0,0,18,18,16,,,,,,2,1.055,123,001,2019_Mar_20_1234,test_run,3.0.6,59.99768048528138,
22,TTI,TTI_22_ty_150219.wav,,,2,rating_d_initial.csv,d,initial,,,,,0,1,1,1,0,1,1,0,0,19,19,21,,,,,,3,0.604,123,001,2019_Mar_20_1234,test_run,3.0.6,59.99768048528138,
7,TDI,TDI_7_den_150219.wav,,,2,rating_d_initial.csv,d,initial,,,,,0,1,1,1,0,1,1,0,0,20,20,6,,,,,,6,0.988,123,001,2019_Mar_20_1234,test_run,3.0.6,59.99768048528138,
3,TDI,TDI_3_dal_150219.wav,,,2,rating_d_initial.csv,d,initial,,,,,0,1,1,1,0,1,1,0,0,21,21,2,,,,,,6,0.471,123,001,2019_Mar_20_1234,test_run,3.0.6,59.99768048528138,
8,TDI,TDI_8_dia_150219.wav,,,2,rating_d_initial.csv,d,initial,,,,,0,1,1,1,0,1,1,0,0,22,22,7,,,,,,7,0.654,123,001,2019_Mar_20_1234,test_run,3.0.6,59.99768048528138,
13,TDI,TDI_13_dog_150219.wav,,,2,rating_d_initial.csv,d,initial,,,,,0,1,1,1,0,1,1,0,0,23,23,12,,,,,,5,0.787,123,001,2019_Mar_20_1234,test_run,3.0.6,59.99768048528138,
1,TDI,TDI_1_dag_150219.wav,,,2,rating_d_initial.csv,d,initial,,,,,0,1,1,1,0,1,1,0,0,24,24,0,,,,,,6,0.787,123,001,2019_Mar_20_1234,test_run,3.0.6,59.99768048528138,
27,TTI,TTI_27_toem_150219.wav,,,2,rating_d_initial.csv,d,initial,,,,,0,1,1,1,0,1,1,0,0,25,25,26,,,,,,3,0.787,123,001,2019_Mar_20_1234,test_run,3.0.6,59.99768048528138,
25,TTI,TTI_25_taar_150219.wav,,,2,rating_d_initial.csv,d,initial,,,,,0,1,1,1,0,1,1,0,0,26,26,24,,,,,,4,0.504,123,001,2019_Mar_20_1234,test_run,3.0.6,59.99768048528138,
