item,item_cond,sound,corr_ans,group,block_id,listname,rating_for,position,trials.thisRepN,trials.thisTrialN,trials.thisN,trials.thisIndex,run_block_type.thisRepN,run_block_type.thisTrialN,run_block_type.thisN,run_block_type.thisIndex,routine.thisRepN,routine.thisTrialN,routine.thisN,routine.thisIndex,rating_trials.thisRepN,rating_trials.thisTrialN,rating_trials.thisN,rating_trials.thisIndex,key_resp_1.keys,key_resp_1.rt,key_resp_2.keys,key_resp_2.corr,key_resp_2.rt,rating_1.response,rating_1.rt,participant,session,date,expName,psychopyVersion,frameRate,
,,,,,,,,,,,,,,,,,,,,,,,,,k,34.70327679201728,,,,,,124,001,2019_Mar_21_1406,test_run,3.0.6,59.990786008570126,
117,ENW,ENW_27_lyssvinner_150219.wav,n,c ,,,,,0,0,0,116,,,,,,,,,,,,,,,n,1,1.2024910459876992,,,124,001,2019_Mar_21_1406,test_run,3.0.6,59.990786008570126,
109,ENW,ENW_19_morloren_150219.wav,n,c ,,,,,0,1,1,108,,,,,,,,,,,,,,,n,1,0.3169238730042707,,,124,001,2019_Mar_21_1406,test_run,3.0.6,59.990786008570126,
112,ENW,ENW_22_fjäserna_150219.wav,n,c ,,,,,0,2,2,111,,,,,,,,,,,,,,,n,1,0.035861470008967444,,,124,001,2019_Mar_21_1406,test_run,3.0.6,59.990786008570126,
37,EFW,EFW_7_sociala_070319.wav,j,c ,,,,,0,3,3,36,,,,,,,,,,,,,,,j,1,3.40058471399243,,,124,001,2019_Mar_21_1406,test_run,3.0.6,59.990786008570126,
11,ECW,ECW_11_foersoeka_070319.wav,j,c ,,,,,0,4,4,10,,,,,,,,,,,,,,,j,1,2.2858786300057545,,,124,001,2019_Mar_21_1406,test_run,3.0.6,59.990786008570126,
88,EFW,EFW_58_examen_070319.wav,j,c ,,,,,0,5,5,87,,,,,,,,,,,,,,,j,1,1.2198149219912011,,,124,001,2019_Mar_21_1406,test_run,3.0.6,59.990786008570126,
63,EFW,EFW_33_elva_070319.wav,j,c ,,,,,0,6,6,62,,,,,,,,,,,,,,,j,1,2.319034743006341,,,124,001,2019_Mar_21_1406,test_run,3.0.6,59.990786008570126,
87,EFW,EFW_57_loenerna_070319.wav,j,c ,,,,,0,7,7,86,,,,,,,,,,,,,,,j,1,0.08586445398395881,,,124,001,2019_Mar_21_1406,test_run,3.0.6,59.990786008570126,
51,EFW,EFW_21_varierar_070319.wav,j,c ,,,,,0,8,8,50,,,,,,,,,,,,,,,j,1,1.617258660000516,,,124,001,2019_Mar_21_1406,test_run,3.0.6,59.990786008570126,
154,ENW,ENW_64_havskvare_150219.wav,n,c ,,,,,0,9,9,153,,,,,,,,,,,,,,,n,1,4.286146867991192,,,124,001,2019_Mar_21_1406,test_run,3.0.6,59.990786008570126,
158,ENW,ENW_68_presionar_150219.wav,n,c ,,,,,0,10,10,157,,,,,,,,,,,,,,,n,1,0.2524928010243457,,,124,001,2019_Mar_21_1406,test_run,3.0.6,59.990786008570126,
176,ENW,ENW_86_heloppsin_150219.wav,n,c ,,,,,0,11,11,175,,,,,,,,,,,,,,,n,1,1.0190800460113678,,,124,001,2019_Mar_21_1406,test_run,3.0.6,59.990786008570126,
66,EFW,EFW_36_haarifroan_070319.wav,j,c ,,,,,0,12,12,65,,,,,,,,,,,,,,,j,1,0.8024935370194726,,,124,001,2019_Mar_21_1406,test_run,3.0.6,59.990786008570126,
172,ENW,ENW_82_värskappa_150219.wav,n,c ,,,,,0,13,13,171,,,,,,,,,,,,,,,n,1,0.9027585400035605,,,124,001,2019_Mar_21_1406,test_run,3.0.6,59.990786008570126,
24,ECW,ECW_24_fysiker_070319.wav,j,c ,,,,,0,14,14,23,,,,,,,,,,,,,,,j,1,0.7031236379989423,,,124,001,2019_Mar_21_1406,test_run,3.0.6,59.990786008570126,
102,ENW,ENW_12_snälmola_150219.wav,n,c ,,,,,0,15,15,101,,,,,,,,,,,,,,,n,1,0.2021388069842942,,,124,001,2019_Mar_21_1406,test_run,3.0.6,59.990786008570126,
106,ENW,ENW_16_rolinkar_150219.wav,n,c ,,,,,0,16,16,105,,,,,,,,,,,,,,,n,1,0.6360943279869389,,,124,001,2019_Mar_21_1406,test_run,3.0.6,59.990786008570126,
44,EFW,EFW_14_foersoeken_070319.wav,j,c ,,,,,0,17,17,43,,,,,,,,,,,,,,,j,1,0.0696910550177563,,,124,001,2019_Mar_21_1406,test_run,3.0.6,59.990786008570126,
4,ECW,ECW_4_skraalla_070319.wav,j,c ,,,,,0,18,18,3,,,,,,,,,,,,,,,j,1,0.08540426901890896,,,124,001,2019_Mar_21_1406,test_run,3.0.6,59.990786008570126,
45,EFW,EFW_15_oeverens_070319.wav,j,c ,,,,,0,19,19,44,,,,,,,,,,,,,,,j,1,1.0857918710098602,,,124,001,2019_Mar_21_1406,test_run,3.0.6,59.990786008570126,
124,ENW,ENW_34_jomera_150219.wav,n,c ,,,,,0,20,20,123,,,,,,,,,,,,,,,j,0,1.269315863988595,,,124,001,2019_Mar_21_1406,test_run,3.0.6,59.990786008570126,
160,ENW,ENW_70_roklarner_150219.wav,n,c ,,,,,0,21,21,159,,,,,,,,,,,,,,,n,1,1.2362250149890315,,,124,001,2019_Mar_21_1406,test_run,3.0.6,59.990786008570126,
92,ENW,ENW_2_overralka_150219.wav,n,c ,,,,,0,22,22,91,,,,,,,,,,,,,,,n,1,0.08583814700250514,,,124,001,2019_Mar_21_1406,test_run,3.0.6,59.990786008570126,
123,ENW,ENW_33_froamation_150219.wav,n,c ,,,,,0,23,23,122,,,,,,,,,,,,,,,n,1,0.317330066987779,,,124,001,2019_Mar_21_1406,test_run,3.0.6,59.990786008570126,
169,ENW,ENW_79_lyxmare_150219.wav,n,c ,,,,,0,24,24,168,,,,,,,,,,,,,,,n,1,2.402811225998448,,,124,001,2019_Mar_21_1406,test_run,3.0.6,59.990786008570126,
33,EFW,EFW_3_familjen_070319.wav,j,c ,,,,,0,25,25,32,,,,,,,,,,,,,,,j,1,0.6690771089924965,,,124,001,2019_Mar_21_1406,test_run,3.0.6,59.990786008570126,
56,EFW,EFW_26_armarna_070319.wav,j,c ,,,,,0,26,26,55,,,,,,,,,,,,,,,j,1,0.05347494297893718,,,124,001,2019_Mar_21_1406,test_run,3.0.6,59.990786008570126,
80,EFW,EFW_50_snaalla_070319.wav,j,c ,,,,,0,27,27,79,,,,,,,,,,,,,,,j,1,0.6530234550009482,,,124,001,2019_Mar_21_1406,test_run,3.0.6,59.990786008570126,
150,ENW,ENW_60_lackpenar_150219.wav,n,c ,,,,,0,28,28,149,,,,,,,,,,,,,,,j,0,1.1189411639934406,,,124,001,2019_Mar_21_1406,test_run,3.0.6,59.990786008570126,
164,ENW,ENW_74_malsera_150219.wav,n,c ,,,,,0,29,29,163,,,,,,,,,,,,,,,n,1,0.9359198820020538,,,124,001,2019_Mar_21_1406,test_run,3.0.6,59.990786008570126,
115,ENW,ENW_25_affierar_150219.wav,n,c ,,,,,0,30,30,114,,,,,,,,,,,,,,,n,1,0.18602927200845443,,,124,001,2019_Mar_21_1406,test_run,3.0.6,59.990786008570126,
93,ENW,ENW_3_vissorens_150219.wav,n,c ,,,,,0,31,31,92,,,,,,,,,,,,,,,n,1,0.3529090429947246,,,124,001,2019_Mar_21_1406,test_run,3.0.6,59.990786008570126,
95,ENW,ENW_5_spoamisk_150219.wav,n,c ,,,,,0,32,32,94,,,,,,,,,,,,,,,n,1,0.5838295819994528,,,124,001,2019_Mar_21_1406,test_run,3.0.6,59.990786008570126,
26,ECW,ECW_26_kroenikoeren_070319.wav,j,c ,,,,,0,33,33,25,,,,,,,,,,,,,,,j,1,1.203273816005094,,,124,001,2019_Mar_21_1406,test_run,3.0.6,59.990786008570126,
69,EFW,EFW_39_foersvara_070319.wav,j,c ,,,,,0,34,34,68,,,,,,,,,,,,,,,j,1,0.4691514050064143,,,124,001,2019_Mar_21_1406,test_run,3.0.6,59.990786008570126,
155,ENW,ENW_65_hamfylla_150219.wav,n,c ,,,,,0,35,35,154,,,,,,,,,,,,,,,n,1,0.8357996080012526,,,124,001,2019_Mar_21_1406,test_run,3.0.6,59.990786008570126,
78,EFW,EFW_48_varifroan_070319.wav,j,c ,,,,,0,36,36,77,,,,,,,,,,,,,,,j,1,0.6696492230112199,,,124,001,2019_Mar_21_1406,test_run,3.0.6,59.990786008570126,
9,ECW,ECW_9_spinna_070319.wav,j,c ,,,,,0,37,37,8,,,,,,,,,,,,,,,j,1,0.5025465299841017,,,124,001,2019_Mar_21_1406,test_run,3.0.6,59.990786008570126,
82,EFW,EFW_52_framhoalla_070319.wav,j,c ,,,,,0,38,38,81,,,,,,,,,,,,,,,j,1,0.7363252069917507,,,124,001,2019_Mar_21_1406,test_run,3.0.6,59.990786008570126,
68,EFW,EFW_38_foerefoell_070319.wav,j,c ,,,,,0,39,39,67,,,,,,,,,,,,,,,j,1,0.6187523060070816,,,124,001,2019_Mar_21_1406,test_run,3.0.6,59.990786008570126,
96,ENW,ENW_6_vilfroaser_150219.wav,n,c ,,,,,0,40,40,95,,,,,,,,,,,,,,,n,1,0.8690337089938112,,,124,001,2019_Mar_21_1406,test_run,3.0.6,59.990786008570126,
118,ENW,ENW_28_läkermask_150219.wav,n,c ,,,,,0,41,41,117,,,,,,,,,,,,,,,n,1,2.9856933490082156,,,124,001,2019_Mar_21_1406,test_run,3.0.6,59.990786008570126,
79,EFW,EFW_49_vaasen_070319.wav,j,c ,,,,,0,42,42,78,,,,,,,,,,,,,,,j,1,0.6028343919897452,,,124,001,2019_Mar_21_1406,test_run,3.0.6,59.990786008570126,
119,ENW,ENW_29_uppskira_150219.wav,n,c ,,,,,0,43,43,118,,,,,,,,,,,,,,,n,1,1.1196111720055342,,,124,001,2019_Mar_21_1406,test_run,3.0.6,59.990786008570126,
125,ENW,ENW_35_nymaljen_150219.wav,n,c ,,,,,0,44,44,124,,,,,,,,,,,,,,,n,1,0.5021465449826792,,,124,001,2019_Mar_21_1406,test_run,3.0.6,59.990786008570126,
60,EFW,EFW_30_officiella_070319.wav,j,c ,,,,,0,45,45,59,,,,,,,,,,,,,,,j,1,0.2697195390064735,,,124,001,2019_Mar_21_1406,test_run,3.0.6,59.990786008570126,
161,ENW,ENW_71_forskäckla_150219.wav,n,c ,,,,,0,46,46,160,,,,,,,,,,,,,,,n,1,0.3196540570061188,,,124,001,2019_Mar_21_1406,test_run,3.0.6,59.990786008570126,
140,ENW,ENW_50_omsänare_150219.wav,n,c ,,,,,0,47,47,139,,,,,,,,,,,,,,,n,1,0.6357378370012157,,,124,001,2019_Mar_21_1406,test_run,3.0.6,59.990786008570126,
141,ENW,ENW_51_skillare_150219.wav,n,c ,,,,,0,48,48,140,,,,,,,,,,,,,,,n,1,0.9528070199885406,,,124,001,2019_Mar_21_1406,test_run,3.0.6,59.990786008570126,
122,ENW,ENW_32_fonering_150219.wav,n,c ,,,,,0,49,49,121,,,,,,,,,,,,,,,n,1,0.18543794998549856,,,124,001,2019_Mar_21_1406,test_run,3.0.6,59.990786008570126,
14,ECW,ECW_14_excellens_070319.wav,j,c ,,,,,0,50,50,13,,,,,,,,,,,,,,,j,1,0.035449407005216926,,,124,001,2019_Mar_21_1406,test_run,3.0.6,59.990786008570126,
22,ECW,ECW_22_anonyma_070319.wav,j,c ,,,,,0,51,51,21,,,,,,,,,,,,,,,j,1,0.5690470520057715,,,124,001,2019_Mar_21_1406,test_run,3.0.6,59.990786008570126,
61,EFW,EFW_31_jaamfoera_070319.wav,j,c ,,,,,0,52,52,60,,,,,,,,,,,,,,,j,1,0.0691271579999011,,,124,001,2019_Mar_21_1406,test_run,3.0.6,59.990786008570126,
49,EFW,EFW_19_roerelse_070319.wav,j,c ,,,,,0,53,53,48,,,,,,,,,,,,,,,j,1,0.43650149801396765,,,124,001,2019_Mar_21_1406,test_run,3.0.6,59.990786008570126,
48,EFW,EFW_18_nummer_070319.wav,j,c ,,,,,0,54,54,47,,,,,,,,,,,,,,,j,1,1.436414067982696,,,124,001,2019_Mar_21_1406,test_run,3.0.6,59.990786008570126,
27,ECW,ECW_27_panorama_070319.wav,j,c ,,,,,0,55,55,26,,,,,,,,,,,,,,,j,1,0.7690549639810342,,,124,001,2019_Mar_21_1406,test_run,3.0.6,59.990786008570126,
175,ENW,ENW_85_forlinna_150219.wav,n,c ,,,,,0,56,56,174,,,,,,,,,,,,,,,n,1,0.6021797409921419,,,124,001,2019_Mar_21_1406,test_run,3.0.6,59.990786008570126,
23,ECW,ECW_23_maximal_070319.wav,j,c ,,,,,0,57,57,22,,,,,,,,,,,,,,,j,1,0.9857498909987044,,,124,001,2019_Mar_21_1406,test_run,3.0.6,59.990786008570126,
81,EFW,EFW_51_seminarier_070319.wav,j,c ,,,,,0,58,58,80,,,,,,,,,,,,,,,j,1,0.8358554219885264,,,124,001,2019_Mar_21_1406,test_run,3.0.6,59.990786008570126,
156,ENW,ENW_66_voarsmenar_150219.wav,n,c ,,,,,0,59,59,155,,,,,,,,,,,,,,,n,1,0.6354791930061765,,,124,001,2019_Mar_21_1406,test_run,3.0.6,59.990786008570126,
148,ENW,ENW_58_malvossa_150219.wav,n,c ,,,,,0,60,60,147,,,,,,,,,,,,,,,n,1,0.5023012000019662,,,124,001,2019_Mar_21_1406,test_run,3.0.6,59.990786008570126,
40,EFW,EFW_10_laarare_070319.wav,j,c ,,,,,0,61,61,39,,,,,,,,,,,,,,,j,1,0.518836425995687,,,124,001,2019_Mar_21_1406,test_run,3.0.6,59.990786008570126,
108,ENW,ENW_18_moalursena_150219.wav,n,c ,,,,,0,62,62,107,,,,,,,,,,,,,,,n,1,4.386160244990606,,,124,001,2019_Mar_21_1406,test_run,3.0.6,59.990786008570126,
3,ECW,ECW_3_virus_070319.wav,j,c ,,,,,0,63,63,2,,,,,,,,,,,,,,,j,1,0.2023979329969734,,,124,001,2019_Mar_21_1406,test_run,3.0.6,59.990786008570126,
103,ENW,ENW_13_forvaron_150219.wav,n,c ,,,,,0,64,64,102,,,,,,,,,,,,,,,n,1,0.7859263919817749,,,124,001,2019_Mar_21_1406,test_run,3.0.6,59.990786008570126,
54,EFW,EFW_24_foersvinner_070319.wav,j,c ,,,,,0,65,65,53,,,,,,,,,,,,,,,j,1,0.4836323350027669,,,124,001,2019_Mar_21_1406,test_run,3.0.6,59.990786008570126,
111,ENW,ENW_21_tjulning_150219.wav,n,c ,,,,,0,66,66,110,,,,,,,,,,,,,,,j,0,0.7364067880262155,,,124,001,2019_Mar_21_1406,test_run,3.0.6,59.990786008570126,
28,ECW,ECW_28_maskinerna_070319.wav,j,c ,,,,,0,67,67,27,,,,,,,,,,,,,,,j,1,0.7356469750229735,,,124,001,2019_Mar_21_1406,test_run,3.0.6,59.990786008570126,
136,ENW,ENW_46_pommera_150219.wav,n,c ,,,,,0,68,68,135,,,,,,,,,,,,,,,n,1,0.7027973000076599,,,124,001,2019_Mar_21_1406,test_run,3.0.6,59.990786008570126,
21,ECW,ECW_21_husera_070319.wav,j,c ,,,,,0,69,69,20,,,,,,,,,,,,,,,j,1,0.7690174889867194,,,124,001,2019_Mar_21_1406,test_run,3.0.6,59.990786008570126,
76,EFW,EFW_46_foerhoer_070319.wav,j,c ,,,,,0,70,70,75,,,,,,,,,,,,,,,j,1,0.5026323490019422,,,124,001,2019_Mar_21_1406,test_run,3.0.6,59.990786008570126,
146,ENW,ENW_56_lysskarna_150219.wav,n,c ,,,,,0,71,71,145,,,,,,,,,,,,,,,n,1,0.3690616979729384,,,124,001,2019_Mar_21_1406,test_run,3.0.6,59.990786008570126,
113,ENW,ENW_23_allsänning_150219.wav,n,c ,,,,,0,72,72,112,,,,,,,,,,,,,,,n,1,0.6530263909953646,,,124,001,2019_Mar_21_1406,test_run,3.0.6,59.990786008570126,
32,EFW,EFW_2_snarare_070319.wav,j,c ,,,,,0,73,73,31,,,,,,,,,,,,,,,j,1,1.5856578180100769,,,124,001,2019_Mar_21_1406,test_run,3.0.6,59.990786008570126,
73,EFW,EFW_43_halvoar_070319.wav,j,c ,,,,,0,74,74,72,,,,,,,,,,,,,,,j,1,0.9695013590098824,,,124,001,2019_Mar_21_1406,test_run,3.0.6,59.990786008570126,
130,ENW,ENW_40_knipackar_150219.wav,n,c ,,,,,0,75,75,129,,,,,,,,,,,,,,,n,1,1.0189970350184012,,,124,001,2019_Mar_21_1406,test_run,3.0.6,59.990786008570126,
53,EFW,EFW_23_aamne_070319.wav,j,c ,,,,,0,76,76,52,,,,,,,,,,,,,,,j,1,0.9522748790041078,,,124,001,2019_Mar_21_1406,test_run,3.0.6,59.990786008570126,
41,EFW,EFW_11_maanniskor_070319.wav,j,c ,,,,,0,77,77,40,,,,,,,,,,,,,,,j,1,0.6362587000185158,,,124,001,2019_Mar_21_1406,test_run,3.0.6,59.990786008570126,
8,ECW,ECW_8_fryshus_070319.wav,j,c ,,,,,0,78,78,7,,,,,,,,,,,,,,,j,1,1.369274986005621,,,124,001,2019_Mar_21_1406,test_run,3.0.6,59.990786008570126,
46,EFW,EFW_16_lyssna_070319.wav,j,c ,,,,,0,79,79,45,,,,,,,,,,,,,,,j,1,0.48615375699591823,,,124,001,2019_Mar_21_1406,test_run,3.0.6,59.990786008570126,
145,ENW,ENW_55_invaskin_150219.wav,n,c ,,,,,0,80,80,144,,,,,,,,,,,,,,,n,1,0.8356534350023139,,,124,001,2019_Mar_21_1406,test_run,3.0.6,59.990786008570126,
138,ENW,ENW_48_skyjamsen_150219.wav,n,c ,,,,,0,81,81,137,,,,,,,,,,,,,,,n,1,0.6338202949846163,,,124,001,2019_Mar_21_1406,test_run,3.0.6,59.990786008570126,
91,ENW,ENW_1_norsimerar_150219.wav,n,c ,,,,,0,82,82,90,,,,,,,,,,,,,,,n,1,0.6029238479968626,,,124,001,2019_Mar_21_1406,test_run,3.0.6,59.990786008570126,
128,ENW,ENW_38_roakanier_150219.wav,n,c ,,,,,0,83,83,127,,,,,,,,,,,,,,,n,1,0.5523505360179115,,,124,001,2019_Mar_21_1406,test_run,3.0.6,59.990786008570126,
131,ENW,ENW_41_vessmaren_150219.wav,n,c ,,,,,0,84,84,130,,,,,,,,,,,,,,,n,1,1.0358820870169438,,,124,001,2019_Mar_21_1406,test_run,3.0.6,59.990786008570126,
34,EFW,EFW_4_foerminska_070319.wav,j,c ,,,,,0,85,85,33,,,,,,,,,,,,,,,j,1,1.3690624090086203,,,124,001,2019_Mar_21_1406,test_run,3.0.6,59.990786008570126,
38,EFW,EFW_8_samman_070319.wav,j,c ,,,,,0,86,86,37,,,,,,,,,,,,,,,j,1,0.8359603830031119,,,124,001,2019_Mar_21_1406,test_run,3.0.6,59.990786008570126,
94,ENW,ENW_4_kyllfaren_150219.wav,n,c ,,,,,0,87,87,93,,,,,,,,,,,,,,,n,1,0.30048369098221883,,,124,001,2019_Mar_21_1406,test_run,3.0.6,59.990786008570126,
58,EFW,EFW_28_olja_070319.wav,j,c ,,,,,0,88,88,57,,,,,,,,,,,,,,,j,1,0.6358655810181517,,,124,001,2019_Mar_21_1406,test_run,3.0.6,59.990786008570126,
6,ECW,ECW_6_sila_070319.wav,j,c ,,,,,0,89,89,5,,,,,,,,,,,,,,,n,0,2.0172087969840504,,,124,001,2019_Mar_21_1406,test_run,3.0.6,59.990786008570126,
178,ENW,ENW_88_marsifen_150219.wav,n,c ,,,,,0,90,90,177,,,,,,,,,,,,,,,n,1,0.9023984230007045,,,124,001,2019_Mar_21_1406,test_run,3.0.6,59.990786008570126,
101,ENW,ENW_11_fränna_150219.wav,n,c ,,,,,0,91,91,100,,,,,,,,,,,,,,,n,1,0.9171579499961808,,,124,001,2019_Mar_21_1406,test_run,3.0.6,59.990786008570126,
86,EFW,EFW_56_mormor_070319.wav,j,c ,,,,,0,92,92,85,,,,,,,,,,,,,,,j,1,0.8172349899832625,,,124,001,2019_Mar_21_1406,test_run,3.0.6,59.990786008570126,
162,ENW,ENW_72_urskecken_150219.wav,n,c ,,,,,0,93,93,161,,,,,,,,,,,,,,,n,1,0.7363205779984128,,,124,001,2019_Mar_21_1406,test_run,3.0.6,59.990786008570126,
120,ENW,ENW_30_sojera_150219.wav,n,c ,,,,,0,94,94,119,,,,,,,,,,,,,,,n,1,0.5694868019782007,,,124,001,2019_Mar_21_1406,test_run,3.0.6,59.990786008570126,
147,ENW,ENW_57_flovanning_150219.wav,n,c ,,,,,0,95,95,146,,,,,,,,,,,,,,,n,1,0.4525908599898685,,,124,001,2019_Mar_21_1406,test_run,3.0.6,59.990786008570126,
67,EFW,EFW_37_foervisso_070319.wav,j,c ,,,,,0,96,96,66,,,,,,,,,,,,,,,j,1,0.6694834889785852,,,124,001,2019_Mar_21_1406,test_run,3.0.6,59.990786008570126,
89,EFW,EFW_59_filosofin_070319.wav,j,c ,,,,,0,97,97,88,,,,,,,,,,,,,,,j,1,0.5531213929934893,,,124,001,2019_Mar_21_1406,test_run,3.0.6,59.990786008570126,
59,EFW,EFW_29_formen_070319.wav,j,c ,,,,,0,98,98,58,,,,,,,,,,,,,,,j,1,0.4522824340092484,,,124,001,2019_Mar_21_1406,test_run,3.0.6,59.990786008570126,
105,ENW,ENW_15_forfeckla_150219.wav,n,c ,,,,,0,99,99,104,,,,,,,,,,,,,,,n,1,0.6190042009984609,,,124,001,2019_Mar_21_1406,test_run,3.0.6,59.990786008570126,
97,ENW,ENW_7_flasera_150219.wav,n,c ,,,,,0,100,100,96,,,,,,,,,,,,,,,n,1,0.6023917179845739,,,124,001,2019_Mar_21_1406,test_run,3.0.6,59.990786008570126,
5,ECW,ECW_5_kamma_070319.wav,j,c ,,,,,0,101,101,4,,,,,,,,,,,,,,,j,1,0.7355970460048411,,,124,001,2019_Mar_21_1406,test_run,3.0.6,59.990786008570126,
134,ENW,ENW_44_inlivna_150219.wav,n,c ,,,,,0,102,102,133,,,,,,,,,,,,,,,n,1,0.4524256680160761,,,124,001,2019_Mar_21_1406,test_run,3.0.6,59.990786008570126,
52,EFW,EFW_22_normala_070319.wav,j,c ,,,,,0,103,103,51,,,,,,,,,,,,,,,j,1,0.6523248220037203,,,124,001,2019_Mar_21_1406,test_run,3.0.6,59.990786008570126,
75,EFW,EFW_45_innanfoer_070319.wav,j,c ,,,,,0,104,104,74,,,,,,,,,,,,,,,j,1,0.7336092600016855,,,124,001,2019_Mar_21_1406,test_run,3.0.6,59.990786008570126,
55,EFW,EFW_25_informera_070319.wav,j,c ,,,,,0,105,105,54,,,,,,,,,,,,,,,j,1,0.4856830150238238,,,124,001,2019_Mar_21_1406,test_run,3.0.6,59.990786008570126,
74,EFW,EFW_44_ljusa_070319.wav,j,c ,,,,,0,106,106,73,,,,,,,,,,,,,,,j,1,0.5191212180070579,,,124,001,2019_Mar_21_1406,test_run,3.0.6,59.990786008570126,
110,ENW,ENW_20_invonen_150219.wav,n,c ,,,,,0,107,107,109,,,,,,,,,,,,,,,n,1,0.4524288329994306,,,124,001,2019_Mar_21_1406,test_run,3.0.6,59.990786008570126,
90,EFW,EFW_60_insulin_070319.wav,j,c ,,,,,0,108,108,89,,,,,,,,,,,,,,,j,1,0.5190498230222147,,,124,001,2019_Mar_21_1406,test_run,3.0.6,59.990786008570126,
149,ENW,ENW_59_kyrkmänning_150219.wav,n,c ,,,,,0,109,109,148,,,,,,,,,,,,,,,j,0,0.8004861249937676,,,124,001,2019_Mar_21_1406,test_run,3.0.6,59.990786008570126,
15,ECW,ECW_15_tjuvarna_070319.wav,j,c ,,,,,0,110,110,14,,,,,,,,,,,,,,,j,1,0.8025170109758619,,,124,001,2019_Mar_21_1406,test_run,3.0.6,59.990786008570126,
25,ECW,ECW_25_oeverfoeras_070319.wav,j,c ,,,,,0,111,111,24,,,,,,,,,,,,,,,j,1,0.6361496080062352,,,124,001,2019_Mar_21_1406,test_run,3.0.6,59.990786008570126,
12,ECW,ECW_12_moehippa_070319.wav,j,c ,,,,,0,112,112,11,,,,,,,,,,,,,,,j,1,0.4861270769906696,,,124,001,2019_Mar_21_1406,test_run,3.0.6,59.990786008570126,
159,ENW,ENW_69_mjohusa_150219.wav,n,c ,,,,,0,113,113,158,,,,,,,,,,,,,,,n,1,0.46914999998989515,,,124,001,2019_Mar_21_1406,test_run,3.0.6,59.990786008570126,
83,EFW,EFW_53_sovrum_070319.wav,j,c ,,,,,0,114,114,82,,,,,,,,,,,,,,,j,1,0.48624193598516285,,,124,001,2019_Mar_21_1406,test_run,3.0.6,59.990786008570126,
143,ENW,ENW_53_svarmvisso_150219.wav,n,c ,,,,,0,115,115,142,,,,,,,,,,,,,,,n,1,0.6521555290091783,,,124,001,2019_Mar_21_1406,test_run,3.0.6,59.990786008570126,
174,ENW,ENW_84_hurmarna_150219.wav,n,c ,,,,,0,116,116,173,,,,,,,,,,,,,,,n,1,0.5524468309886288,,,124,001,2019_Mar_21_1406,test_run,3.0.6,59.990786008570126,
10,ECW,ECW_10_flisa_070319.wav,j,c ,,,,,0,117,117,9,,,,,,,,,,,,,,,j,1,1.2859507559915073,,,124,001,2019_Mar_21_1406,test_run,3.0.6,59.990786008570126,
151,ENW,ENW_61_myckskina_150219.wav,n,c ,,,,,0,118,118,150,,,,,,,,,,,,,,,n,1,0.5354459729860537,,,124,001,2019_Mar_21_1406,test_run,3.0.6,59.990786008570126,
152,ENW,ENW_62_ljullepilja_150219.wav,n,c ,,,,,0,119,119,151,,,,,,,,,,,,,,,n,1,0.5187245779961813,,,124,001,2019_Mar_21_1406,test_run,3.0.6,59.990786008570126,
163,ENW,ENW_73_vimmankalla_150219.wav,n,c ,,,,,0,120,120,162,,,,,,,,,,,,,,,n,1,0.7193286269903183,,,124,001,2019_Mar_21_1406,test_run,3.0.6,59.990786008570126,
19,ECW,ECW_19_persiska_070319.wav,j,c ,,,,,0,121,121,18,,,,,,,,,,,,,,,j,1,0.7189643469755538,,,124,001,2019_Mar_21_1406,test_run,3.0.6,59.990786008570126,
144,ENW,ENW_54_lomering_150219.wav,n,c ,,,,,0,122,122,143,,,,,,,,,,,,,,,n,1,0.902380457991967,,,124,001,2019_Mar_21_1406,test_run,3.0.6,59.990786008570126,
114,ENW,ENW_24_samjoner_150219.wav,n,c ,,,,,0,123,123,113,,,,,,,,,,,,,,,n,1,0.66905100402073,,,124,001,2019_Mar_21_1406,test_run,3.0.6,59.990786008570126,
107,ENW,ENW_17_kopynnor_150219.wav,n,c ,,,,,0,124,124,106,,,,,,,,,,,,,,,n,1,0.6688215229951311,,,124,001,2019_Mar_21_1406,test_run,3.0.6,59.990786008570126,
31,EFW,EFW_1_allmaan_070319.wav,j,c ,,,,,0,125,125,30,,,,,,,,,,,,,,,j,1,0.5862306200142484,,,124,001,2019_Mar_21_1406,test_run,3.0.6,59.990786008570126,
168,ENW,ENW_78_morvinder_150219.wav,n,c ,,,,,0,126,126,167,,,,,,,,,,,,,,,n,1,0.5191668070037849,,,124,001,2019_Mar_21_1406,test_run,3.0.6,59.990786008570126,
173,ENW,ENW_83_fyrskovar_150219.wav,n,c ,,,,,0,127,127,172,,,,,,,,,,,,,,,n,1,0.517183115996886,,,124,001,2019_Mar_21_1406,test_run,3.0.6,59.990786008570126,
142,ENW,ENW_52_filofyll_150219.wav,n,c ,,,,,0,128,128,141,,,,,,,,,,,,,,,n,1,0.8192529160005506,,,124,001,2019_Mar_21_1406,test_run,3.0.6,59.990786008570126,
98,ENW,ENW_8_haväras_150219.wav,n,c ,,,,,0,129,129,97,,,,,,,,,,,,,,,n,1,0.9022551749949344,,,124,001,2019_Mar_21_1406,test_run,3.0.6,59.990786008570126,
135,ENW,ENW_45_fammoarens_150219.wav,n,c ,,,,,0,130,130,134,,,,,,,,,,,,,,,n,1,0.5687950229912531,,,124,001,2019_Mar_21_1406,test_run,3.0.6,59.990786008570126,
137,ENW,ENW_47_oafläppen_150219.wav,n,c ,,,,,0,131,131,136,,,,,,,,,,,,,,,n,1,0.45276895799906924,,,124,001,2019_Mar_21_1406,test_run,3.0.6,59.990786008570126,
1,ECW,ECW_1_anka_070319.wav,j,c ,,,,,0,132,132,0,,,,,,,,,,,,,,,j,1,0.9031007419980597,,,124,001,2019_Mar_21_1406,test_run,3.0.6,59.990786008570126,
7,ECW,ECW_7_marin_070319.wav,j,c ,,,,,0,133,133,6,,,,,,,,,,,,,,,j,1,0.652520622999873,,,124,001,2019_Mar_21_1406,test_run,3.0.6,59.990786008570126,
29,ECW,ECW_29_mejerier_070319.wav,j,c ,,,,,0,134,134,28,,,,,,,,,,,,,,,j,1,0.4857256780087482,,,124,001,2019_Mar_21_1406,test_run,3.0.6,59.990786008570126,
99,ENW,ENW_9_samlemor_150219.wav,n,c ,,,,,0,135,135,98,,,,,,,,,,,,,,,n,1,0.5689434749947395,,,124,001,2019_Mar_21_1406,test_run,3.0.6,59.990786008570126,
57,EFW,EFW_27_analysera_070319.wav,j,c ,,,,,0,136,136,56,,,,,,,,,,,,,,,j,1,0.8031807140214369,,,124,001,2019_Mar_21_1406,test_run,3.0.6,59.990786008570126,
179,ENW,ENW_89_mikenspoan_150219.wav,n,c ,,,,,0,137,137,178,,,,,,,,,,,,,,,n,1,0.7690423979947809,,,124,001,2019_Mar_21_1406,test_run,3.0.6,59.990786008570126,
64,EFW,EFW_34_sommar_070319.wav,j,c ,,,,,0,138,138,63,,,,,,,,,,,,,,,j,1,0.985581937013194,,,124,001,2019_Mar_21_1406,test_run,3.0.6,59.990786008570126,
167,ENW,ENW_77_somfera_150219.wav,n,c ,,,,,0,139,139,166,,,,,,,,,,,,,,,n,1,0.9688278879912104,,,124,001,2019_Mar_21_1406,test_run,3.0.6,59.990786008570126,
153,ENW,ENW_63_femyrisk_150219.wav,n,c ,,,,,0,140,140,152,,,,,,,,,,,,,,,n,1,0.9030857470061164,,,124,001,2019_Mar_21_1406,test_run,3.0.6,59.990786008570126,
100,ENW,ENW_10_skinnamer_150219.wav,n,c ,,,,,0,141,141,99,,,,,,,,,,,,,,,n,1,1.0004517319903243,,,124,001,2019_Mar_21_1406,test_run,3.0.6,59.990786008570126,
129,ENW,ENW_39_ljusonar_150219.wav,n,c ,,,,,0,142,142,128,,,,,,,,,,,,,,,n,1,0.6352619339886587,,,124,001,2019_Mar_21_1406,test_run,3.0.6,59.990786008570126,
170,ENW,ENW_80_tjarfera_150219.wav,n,c ,,,,,0,143,143,169,,,,,,,,,,,,,,,n,1,0.519321502011735,,,124,001,2019_Mar_21_1406,test_run,3.0.6,59.990786008570126,
180,ENW,ENW_90_skrivinar_150219.wav,n,c ,,,,,0,144,144,179,,,,,,,,,,,,,,,n,1,1.1023276400228497,,,124,001,2019_Mar_21_1406,test_run,3.0.6,59.990786008570126,
30,ECW,ECW_30_recensioner_070319.wav,j,c ,,,,,0,145,145,29,,,,,,,,,,,,,,,j,1,0.2694662600115407,,,124,001,2019_Mar_21_1406,test_run,3.0.6,59.990786008570126,
139,ENW,ENW_49_hälskrena_150219.wav,n,c ,,,,,0,146,146,138,,,,,,,,,,,,,,,n,1,0.35298877299646847,,,124,001,2019_Mar_21_1406,test_run,3.0.6,59.990786008570126,
18,ECW,ECW_18_morkulla_070319.wav,j,c ,,,,,0,147,147,17,,,,,,,,,,,,,,,j,1,0.636295060015982,,,124,001,2019_Mar_21_1406,test_run,3.0.6,59.990786008570126,
171,ENW,ENW_81_persifera_150219.wav,n,c ,,,,,0,148,148,170,,,,,,,,,,,,,,,n,1,0.8195472150109708,,,124,001,2019_Mar_21_1406,test_run,3.0.6,59.990786008570126,
35,EFW,EFW_5_samhaalle_070319.wav,j,c ,,,,,0,149,149,34,,,,,,,,,,,,,,,j,1,0.7361103520088363,,,124,001,2019_Mar_21_1406,test_run,3.0.6,59.990786008570126,
77,EFW,EFW_47_invoanare_070319.wav,j,c ,,,,,0,150,150,76,,,,,,,,,,,,,,,j,1,0.519013122015167,,,124,001,2019_Mar_21_1406,test_run,3.0.6,59.990786008570126,
165,ENW,ENW_75_foarskining_150219.wav,n,c ,,,,,0,151,151,164,,,,,,,,,,,,,,,n,1,0.13591661598184146,,,124,001,2019_Mar_21_1406,test_run,3.0.6,59.990786008570126,
17,ECW,ECW_17_majonnaas_070319.wav,j,c ,,,,,0,152,152,16,,,,,,,,,,,,,,,j,1,0.7858895370154642,,,124,001,2019_Mar_21_1406,test_run,3.0.6,59.990786008570126,
126,ENW,ENW_36_skymlosa_150219.wav,n,c ,,,,,0,153,153,125,,,,,,,,,,,,,,,n,1,0.5691226250200998,,,124,001,2019_Mar_21_1406,test_run,3.0.6,59.990786008570126,
13,ECW,ECW_13_kanonform_070319.wav,j,c ,,,,,0,154,154,12,,,,,,,,,,,,,,,j,1,0.7198278510186356,,,124,001,2019_Mar_21_1406,test_run,3.0.6,59.990786008570126,
47,EFW,EFW_17_januari_070319.wav,j,c ,,,,,0,155,155,46,,,,,,,,,,,,,,,j,1,0.5019092600268777,,,124,001,2019_Mar_21_1406,test_run,3.0.6,59.990786008570126,
36,EFW,EFW_6_massa_070319.wav,j,c ,,,,,0,156,156,35,,,,,,,,,,,,,,,j,1,0.7020512059971225,,,124,001,2019_Mar_21_1406,test_run,3.0.6,59.990786008570126,
20,ECW,ECW_20_sommarspel_070319.wav,j,c ,,,,,0,157,157,19,,,,,,,,,,,,,,,j,1,0.5688732170092408,,,124,001,2019_Mar_21_1406,test_run,3.0.6,59.990786008570126,
104,ENW,ENW_14_kärmenor_150219.wav,n,c ,,,,,0,158,158,103,,,,,,,,,,,,,,,n,1,0.45305206801276654,,,124,001,2019_Mar_21_1406,test_run,3.0.6,59.990786008570126,
157,ENW,ENW_67_oafreskar_150219.wav,n,c ,,,,,0,159,159,156,,,,,,,,,,,,,,,n,1,0.4862703969993163,,,124,001,2019_Mar_21_1406,test_run,3.0.6,59.990786008570126,
62,EFW,EFW_32_fyller_070319.wav,j,c ,,,,,0,160,160,61,,,,,,,,,,,,,,,j,1,0.9020429949741811,,,124,001,2019_Mar_21_1406,test_run,3.0.6,59.990786008570126,
70,EFW,EFW_40_miljoner_070319.wav,j,c ,,,,,0,161,161,69,,,,,,,,,,,,,,,j,1,0.5522009439882822,,,124,001,2019_Mar_21_1406,test_run,3.0.6,59.990786008570126,
127,ENW,ENW_37_spallrivet_150219.wav,n,c ,,,,,0,162,162,126,,,,,,,,,,,,,,,n,1,0.5526522970176302,,,124,001,2019_Mar_21_1406,test_run,3.0.6,59.990786008570126,
121,ENW,ENW_31_romation_150219.wav,n,c ,,,,,0,163,163,120,,,,,,,,,,,,,,,n,1,0.4688492370187305,,,124,001,2019_Mar_21_1406,test_run,3.0.6,59.990786008570126,
39,EFW,EFW_9_infektion_070319.wav,j,c ,,,,,0,164,164,38,,,,,,,,,,,,,,,j,1,0.4691555499739479,,,124,001,2019_Mar_21_1406,test_run,3.0.6,59.990786008570126,
132,ENW,ENW_42_hamsforing_150219.wav,n,c ,,,,,0,165,165,131,,,,,,,,,,,,,,,n,1,0.5024208230024669,,,124,001,2019_Mar_21_1406,test_run,3.0.6,59.990786008570126,
85,EFW,EFW_55_oroar_070319.wav,j,c ,,,,,0,166,166,84,,,,,,,,,,,,,,,j,1,0.5360554859798867,,,124,001,2019_Mar_21_1406,test_run,3.0.6,59.990786008570126,
177,ENW,ENW_87_kloavare_150219.wav,n,c ,,,,,0,167,167,176,,,,,,,,,,,,,,,n,1,1.1019337479956448,,,124,001,2019_Mar_21_1406,test_run,3.0.6,59.990786008570126,
133,ENW,ENW_43_axalän_150219.wav,n,c ,,,,,0,168,168,132,,,,,,,,,,,,,,,n,1,0.5689282949897461,,,124,001,2019_Mar_21_1406,test_run,3.0.6,59.990786008570126,
65,EFW,EFW_35_affaarer_070319.wav,j,c ,,,,,0,169,169,64,,,,,,,,,,,,,,,j,1,0.6357248789863661,,,124,001,2019_Mar_21_1406,test_run,3.0.6,59.990786008570126,
84,EFW,EFW_54_romaner_070319.wav,j,c ,,,,,0,170,170,83,,,,,,,,,,,,,,,j,1,0.41911256598541513,,,124,001,2019_Mar_21_1406,test_run,3.0.6,59.990786008570126,
72,EFW,EFW_42_naavaron_070319.wav,j,c ,,,,,0,171,171,71,,,,,,,,,,,,,,,j,1,0.45286888000555336,,,124,001,2019_Mar_21_1406,test_run,3.0.6,59.990786008570126,
16,ECW,ECW_16_skinskalle_070319.wav,j,c ,,,,,0,172,172,15,,,,,,,,,,,,,,,j,1,0.6671408850234002,,,124,001,2019_Mar_21_1406,test_run,3.0.6,59.990786008570126,
71,EFW,EFW_41_infinna_070319.wav,j,c ,,,,,0,173,173,70,,,,,,,,,,,,,,,j,1,0.4526285800093319,,,124,001,2019_Mar_21_1406,test_run,3.0.6,59.990786008570126,
50,EFW,EFW_20_fenomen_070319.wav,j,c ,,,,,0,174,174,49,,,,,,,,,,,,,,,j,1,0.3858555869956035,,,124,001,2019_Mar_21_1406,test_run,3.0.6,59.990786008570126,
166,ENW,ENW_76_omfläskor_150219.wav,n,c ,,,,,0,175,175,165,,,,,,,,,,,,,,,n,1,0.8857951259997208,,,124,001,2019_Mar_21_1406,test_run,3.0.6,59.990786008570126,
116,ENW,ENW_26_anufera_150219.wav,n,c ,,,,,0,176,176,115,,,,,,,,,,,,,,,n,1,0.41947568001342006,,,124,001,2019_Mar_21_1406,test_run,3.0.6,59.990786008570126,
43,EFW,EFW_13_elever_070319.wav,j,c ,,,,,0,177,177,42,,,,,,,,,,,,,,,j,1,0.5361242149956524,,,124,001,2019_Mar_21_1406,test_run,3.0.6,59.990786008570126,
2,ECW,ECW_2_hinna_070319.wav,j,c ,,,,,0,178,178,1,,,,,,,,,,,,,,,j,1,0.5029923880065326,,,124,001,2019_Mar_21_1406,test_run,3.0.6,59.990786008570126,
42,EFW,EFW_12_foeremoal_070319.wav,j,c ,,,,,0,179,179,41,,,,,,,,,,,,,,,j,1,0.6531622390029952,,,124,001,2019_Mar_21_1406,test_run,3.0.6,59.990786008570126,
30,TDF,TDF_30_sladd_070319.wav,,,1,rating_t_final.csv,t,final,,,,,0,0,0,0,0,0,0,1,0,0,0,29,,,,,,1,29.371,124,001,2019_Mar_21_1406,test_run,3.0.6,59.990786008570126,
2,TTF,TTF_2_vet_070319.wav,,,1,rating_t_final.csv,t,final,,,,,0,0,0,0,0,0,0,1,0,1,1,1,,,,,,7,6.088,124,001,2019_Mar_21_1406,test_run,3.0.6,59.990786008570126,
7,TTF,TTF_7_vit_070319.wav,,,1,rating_t_final.csv,t,final,,,,,0,0,0,0,0,0,0,1,0,2,2,6,,,,,,7,3.387,124,001,2019_Mar_21_1406,test_run,3.0.6,59.990786008570126,
11,TTF,TTF_11_svit_070319.wav,,,1,rating_t_final.csv,t,final,,,,,0,0,0,0,0,0,0,1,0,3,3,10,,,,,,7,0.804,124,001,2019_Mar_21_1406,test_run,3.0.6,59.990786008570126,
19,TDF,TDF_19_sjod_070319.wav,,,1,rating_t_final.csv,t,final,,,,,0,0,0,0,0,0,0,1,0,4,4,18,,,,,,1,3.221,124,001,2019_Mar_21_1406,test_run,3.0.6,59.990786008570126,
15,TTF,TTF_15_not_070319.wav,,,1,rating_t_final.csv,t,final,,,,,0,0,0,0,0,0,0,1,0,5,5,14,,,,,,7,1.92,124,001,2019_Mar_21_1406,test_run,3.0.6,59.990786008570126,
27,TDF,TDF_27_sand_070319.wav,,,1,rating_t_final.csv,t,final,,,,,0,0,0,0,0,0,0,1,0,6,6,26,,,,,,1,1.421,124,001,2019_Mar_21_1406,test_run,3.0.6,59.990786008570126,
8,TTF,TTF_8_noet_070319.wav,,,1,rating_t_final.csv,t,final,,,,,0,0,0,0,0,0,0,1,0,7,7,7,,,,,,7,0.721,124,001,2019_Mar_21_1406,test_run,3.0.6,59.990786008570126,
12,TTF,TTF_12_smet_070319.wav,,,1,rating_t_final.csv,t,final,,,,,0,0,0,0,0,0,0,1,0,8,8,11,,,,,,6,62.586,124,001,2019_Mar_21_1406,test_run,3.0.6,59.990786008570126,
16,TTF,TTF_16_font_070319.wav,,,1,rating_t_final.csv,t,final,,,,,0,0,0,0,0,0,0,1,0,9,9,15,,,,,,6,5.22,124,001,2019_Mar_21_1406,test_run,3.0.6,59.990786008570126,
5,TTF,TTF_5_voat_070319.wav,,,1,rating_t_final.csv,t,final,,,,,0,0,0,0,0,0,0,1,0,10,10,4,,,,,,7,3.071,124,001,2019_Mar_21_1406,test_run,3.0.6,59.990786008570126,
21,TDF,TDF_21_ljod _070319.wav,,,1,rating_t_final.csv,t,final,,,,,0,0,0,0,0,0,0,1,0,11,11,20,,,,,,1,3.504,124,001,2019_Mar_21_1406,test_run,3.0.6,59.990786008570126,
32,TDF,TDF_32_hoard_070319.wav,,,1,rating_t_final.csv,t,final,,,,,0,0,0,0,0,0,0,1,0,12,12,31,,,,,,1,1.186,124,001,2019_Mar_21_1406,test_run,3.0.6,59.990786008570126,
10,TTF,TTF_10_broet_070319.wav,,,1,rating_t_final.csv,t,final,,,,,0,0,0,0,0,0,0,1,0,13,13,9,,,,,,4,5.721,124,001,2019_Mar_21_1406,test_run,3.0.6,59.990786008570126,
25,TDF,TDF_25_synd_070319.wav,,,1,rating_t_final.csv,t,final,,,,,0,0,0,0,0,0,0,1,0,14,14,24,,,,,,1,0.654,124,001,2019_Mar_21_1406,test_run,3.0.6,59.990786008570126,
26,TDF,TDF_26_rymd_070319.wav,,,1,rating_t_final.csv,t,final,,,,,0,0,0,0,0,0,0,1,0,15,15,25,,,,,,1,1.27,124,001,2019_Mar_21_1406,test_run,3.0.6,59.990786008570126,
1,TTF,TTF_1_rit_070319.wav,,,1,rating_t_final.csv,t,final,,,,,0,0,0,0,0,0,0,1,0,16,16,0,,,,,,7,0.688,124,001,2019_Mar_21_1406,test_run,3.0.6,59.990786008570126,
22,TDF,TDF_22_hed_070319.wav,,,1,rating_t_final.csv,t,final,,,,,0,0,0,0,0,0,0,1,0,17,17,21,,,,,,3,4.437,124,001,2019_Mar_21_1406,test_run,3.0.6,59.990786008570126,
18,TDF,TDF_18_sjud_070319.wav,,,1,rating_t_final.csv,t,final,,,,,0,0,0,0,0,0,0,1,0,18,18,17,,,,,,3,1.921,124,001,2019_Mar_21_1406,test_run,3.0.6,59.990786008570126,
20,TDF,TDF_20_god_070319.wav,,,1,rating_t_final.csv,t,final,,,,,0,0,0,0,0,0,0,1,0,19,19,19,,,,,,1,0.854,124,001,2019_Mar_21_1406,test_run,3.0.6,59.990786008570126,
31,TDF,TDF_31_brodd_070319.wav,,,1,rating_t_final.csv,t,final,,,,,0,0,0,0,0,0,0,1,0,20,20,30,,,,,,5,4.388,124,001,2019_Mar_21_1406,test_run,3.0.6,59.990786008570126,
23,TDF,TDF_23_hud_070319.wav,,,1,rating_t_final.csv,t,final,,,,,0,0,0,0,0,0,0,1,0,21,21,22,,,,,,1,0.737,124,001,2019_Mar_21_1406,test_run,3.0.6,59.990786008570126,
9,TTF,TTF_9_bot_070319.wav,,,1,rating_t_final.csv,t,final,,,,,0,0,0,0,0,0,0,1,0,22,22,8,,,,,,5,8.203,124,001,2019_Mar_21_1406,test_run,3.0.6,59.990786008570126,
14,TTF,TTF_14_mot_070319.wav,,,1,rating_t_final.csv,t,final,,,,,0,0,0,0,0,0,0,1,0,23,23,13,,,,,,7,0.654,124,001,2019_Mar_21_1406,test_run,3.0.6,59.990786008570126,
6,TTF,TTF_6_voart_070319.wav,,,1,rating_t_final.csv,t,final,,,,,0,0,0,0,0,0,0,1,0,24,24,5,,,,,,7,0.603,124,001,2019_Mar_21_1406,test_run,3.0.6,59.990786008570126,
4,TTF,TTF_4_roet_070319.wav,,,1,rating_t_final.csv,t,final,,,,,0,0,0,0,0,0,0,1,0,25,25,3,,,,,,6,1.353,124,001,2019_Mar_21_1406,test_run,3.0.6,59.990786008570126,
3,TTF,TTF_3_raat_070319.wav,,,1,rating_t_final.csv,t,final,,,,,0,0,0,0,0,0,0,1,0,26,26,2,,,,,,7,1.105,124,001,2019_Mar_21_1406,test_run,3.0.6,59.990786008570126,
13,TTF,TTF_13_gjut_070319.wav,,,1,rating_t_final.csv,t,final,,,,,0,0,0,0,0,0,0,1,0,27,27,12,,,,,,4,3.42,124,001,2019_Mar_21_1406,test_run,3.0.6,59.990786008570126,
24,TDF,TDF_24_smid_070319.wav,,,1,rating_t_final.csv,t,final,,,,,0,0,0,0,0,0,0,1,0,28,28,23,,,,,,1,0.871,124,001,2019_Mar_21_1406,test_run,3.0.6,59.990786008570126,
29,TDF,TDF_29_baadd_070319.wav,,,1,rating_t_final.csv,t,final,,,,,0,0,0,0,0,0,0,1,0,29,29,28,,,,,,5,3.354,124,001,2019_Mar_21_1406,test_run,3.0.6,59.990786008570126,
17,TDF,TDF_17_sked_070319.wav,,,1,rating_t_final.csv,t,final,,,,,0,0,0,0,0,0,0,1,0,30,30,16,,,,,,1,0.72,124,001,2019_Mar_21_1406,test_run,3.0.6,59.990786008570126,
28,TDF,TDF_28_brand_070319.wav,,,1,rating_t_final.csv,t,final,,,,,0,0,0,0,0,0,0,1,0,31,31,27,,,,,,1,1.021,124,001,2019_Mar_21_1406,test_run,3.0.6,59.990786008570126,
19,TTF,TTF_19_skoet_070319.wav,,,1,rating_d_final.csv,d,final,,,,,0,0,0,0,0,1,1,0,0,0,0,18,,,,,,5,9.304,124,001,2019_Mar_21_1406,test_run,3.0.6,59.990786008570126,
10,TDF,TDF_10_brod_070319.wav,,,1,rating_d_final.csv,d,final,,,,,0,0,0,0,0,1,1,0,0,1,1,9,,,,,,7,2.388,124,001,2019_Mar_21_1406,test_run,3.0.6,59.990786008570126,
14,TDF,TDF_14_mod_070319.wav,,,1,rating_d_final.csv,d,final,,,,,0,0,0,0,0,1,1,0,0,2,2,13,,,,,,7,1.054,124,001,2019_Mar_21_1406,test_run,3.0.6,59.990786008570126,
27,TTF,TTF_27_sant_070319.wav,,,1,rating_d_final.csv,d,final,,,,,0,0,0,0,0,1,1,0,0,3,3,26,,,,,,1,0.721,124,001,2019_Mar_21_1406,test_run,3.0.6,59.990786008570126,
25,TTF,TTF_25_synt_070319.wav,,,1,rating_d_final.csv,d,final,,,,,0,0,0,0,0,1,1,0,0,4,4,24,,,,,,1,1.037,124,001,2019_Mar_21_1406,test_run,3.0.6,59.990786008570126,
4,TDF,TDF_4_rod_070319.wav,,,1,rating_d_final.csv,d,final,,,,,0,0,0,0,0,1,1,0,0,5,5,3,,,,,,7,0.554,124,001,2019_Mar_21_1406,test_run,3.0.6,59.990786008570126,
3,TDF,TDF_3_raad_070319.wav,,,1,rating_d_final.csv,d,final,,,,,0,0,0,0,0,1,1,0,0,6,6,2,,,,,,6,2.971,124,001,2019_Mar_21_1406,test_run,3.0.6,59.990786008570126,
2,TDF,TDF_2_ved_070319.wav,,,1,rating_d_final.csv,d,final,,,,,0,0,0,0,0,1,1,0,0,7,7,1,,,,,,6,1.204,124,001,2019_Mar_21_1406,test_run,3.0.6,59.990786008570126,
17,TTF,TTF_17_sket_070319.wav,,,1,rating_d_final.csv,d,final,,,,,0,0,0,0,0,1,1,0,0,8,8,16,,,,,,1,1.22,124,001,2019_Mar_21_1406,test_run,3.0.6,59.990786008570126,
30,TTF,TTF_30_slatt_070319.wav,,,1,rating_d_final.csv,d,final,,,,,0,0,0,0,0,1,1,0,0,9,9,29,,,,,,1,0.587,124,001,2019_Mar_21_1406,test_run,3.0.6,59.990786008570126,
26,TTF,TTF_26_rymt_070319.wav,,,1,rating_d_final.csv,d,final,,,,,0,0,0,0,0,1,1,0,0,10,10,25,,,,,,4,4.704,124,001,2019_Mar_21_1406,test_run,3.0.6,59.990786008570126,
22,TTF,TTF_22_het_070319.wav,,,1,rating_d_final.csv,d,final,,,,,0,0,0,0,0,1,1,0,0,11,11,21,,,,,,1,2.221,124,001,2019_Mar_21_1406,test_run,3.0.6,59.990786008570126,
6,TDF,TDF_6_voard_070319.wav,,,1,rating_d_final.csv,d,final,,,,,0,0,0,0,0,1,1,0,0,12,12,5,,,,,,6,1.687,124,001,2019_Mar_21_1406,test_run,3.0.6,59.990786008570126,
24,TTF,TTF_24_smit_070319.wav,,,1,rating_d_final.csv,d,final,,,,,0,0,0,0,0,1,1,0,0,13,13,23,,,,,,7,3.786,124,001,2019_Mar_21_1406,test_run,3.0.6,59.990786008570126,
8,TDF,TDF_8_nod_070319.wav,,,1,rating_d_final.csv,d,final,,,,,0,0,0,0,0,1,1,0,0,14,14,7,,,,,,7,1.353,124,001,2019_Mar_21_1406,test_run,3.0.6,59.990786008570126,
7,TDF,TDF_7_vid_070319.wav,,,1,rating_d_final.csv,d,final,,,,,0,0,0,0,0,1,1,0,0,15,15,6,,,,,,6,1.703,124,001,2019_Mar_21_1406,test_run,3.0.6,59.990786008570126,
13,TDF,TDF_13_ljud_070319.wav,,,1,rating_d_final.csv,d,final,,,,,0,0,0,0,0,1,1,0,0,16,16,12,,,,,,7,0.637,124,001,2019_Mar_21_1406,test_run,3.0.6,59.990786008570126,
11,TDF,TDF_11_svid_070319.wav,,,1,rating_d_final.csv,d,final,,,,,0,0,0,0,0,1,1,0,0,17,17,10,,,,,,4,6.471,124,001,2019_Mar_21_1406,test_run,3.0.6,59.990786008570126,
28,TTF,TTF_28_brant_070319.wav,,,1,rating_d_final.csv,d,final,,,,,0,0,0,0,0,1,1,0,0,18,18,27,,,,,,1,0.721,124,001,2019_Mar_21_1406,test_run,3.0.6,59.990786008570126,
1,TDF,TDF_1_rid_070319.wav,,,1,rating_d_final.csv,d,final,,,,,0,0,0,0,0,1,1,0,0,19,19,0,,,,,,7,2.004,124,001,2019_Mar_21_1406,test_run,3.0.6,59.990786008570126,
21,TTF,TTF_21_gjoet_070319.wav,,,1,rating_d_final.csv,d,final,,,,,0,0,0,0,0,1,1,0,0,20,20,20,,,,,,1,1.304,124,001,2019_Mar_21_1406,test_run,3.0.6,59.990786008570126,
5,TDF,TDF_5_voad_070319.wav,,,1,rating_d_final.csv,d,final,,,,,0,0,0,0,0,1,1,0,0,21,21,4,,,,,,6,2.12,124,001,2019_Mar_21_1406,test_run,3.0.6,59.990786008570126,
15,TDF,TDF_15_nod_070319.wav,,,1,rating_d_final.csv,d,final,,,,,0,0,0,0,0,1,1,0,0,22,22,14,,,,,,7,0.587,124,001,2019_Mar_21_1406,test_run,3.0.6,59.990786008570126,
29,TTF,TTF_29_bett_070319.wav,,,1,rating_d_final.csv,d,final,,,,,0,0,0,0,0,1,1,0,0,23,23,28,,,,,,1,0.453,124,001,2019_Mar_21_1406,test_run,3.0.6,59.990786008570126,
23,TTF,TTF_23_hut_070319.wav,,,1,rating_d_final.csv,d,final,,,,,0,0,0,0,0,1,1,0,0,24,24,22,,,,,,5,3.421,124,001,2019_Mar_21_1406,test_run,3.0.6,59.990786008570126,
16,TDF,TDF_16_fond_070319.wav,,,1,rating_d_final.csv,d,final,,,,,0,0,0,0,0,1,1,0,0,25,25,15,,,,,,7,0.787,124,001,2019_Mar_21_1406,test_run,3.0.6,59.990786008570126,
9,TDF,TDF_9_bod_070319.wav,,,1,rating_d_final.csv,d,final,,,,,0,0,0,0,0,1,1,0,0,26,26,8,,,,,,5,1.054,124,001,2019_Mar_21_1406,test_run,3.0.6,59.990786008570126,
20,TTF,TTF_20_got_070319.wav,,,1,rating_d_final.csv,d,final,,,,,0,0,0,0,0,1,1,0,0,27,27,19,,,,,,4,4.237,124,001,2019_Mar_21_1406,test_run,3.0.6,59.990786008570126,
18,TTF,TTF_18_skjut_070319.wav,,,1,rating_d_final.csv,d,final,,,,,0,0,0,0,0,1,1,0,0,28,28,17,,,,,,1,0.754,124,001,2019_Mar_21_1406,test_run,3.0.6,59.990786008570126,
31,TTF,TTF_31_brott_070319.wav,,,1,rating_d_final.csv,d,final,,,,,0,0,0,0,0,1,1,0,0,29,29,30,,,,,,1,1.353,124,001,2019_Mar_21_1406,test_run,3.0.6,59.990786008570126,
12,TDF,TDF_12_smed_070319.wav,,,1,rating_d_final.csv,d,final,,,,,0,0,0,0,0,1,1,0,0,30,30,11,,,,,,6,1.57,124,001,2019_Mar_21_1406,test_run,3.0.6,59.990786008570126,
32,TTF,TTF_32_hoart_070319.wav,,,1,rating_d_final.csv,d,final,,,,,0,0,0,0,0,1,1,0,0,31,31,31,,,,,,1,1.652,124,001,2019_Mar_21_1406,test_run,3.0.6,59.990786008570126,
9,TDI,TDI_9_dill_150219.wav,,,2,rating_d_initial.csv,d,initial,,,,,0,1,1,1,0,0,0,0,0,0,0,8,,,,,,7,7.354,124,001,2019_Mar_21_1406,test_run,3.0.6,59.990786008570126,
2,TDI,TDI_2_dagg_150219.wav,,,2,rating_d_initial.csv,d,initial,,,,,0,1,1,1,0,0,0,0,0,1,1,1,,,,,,7,1.003,124,001,2019_Mar_21_1406,test_run,3.0.6,59.990786008570126,
11,TDI,TDI_11_dipp_150219.wav,,,2,rating_d_initial.csv,d,initial,,,,,0,1,1,1,0,0,0,0,0,2,2,10,,,,,,7,1.104,124,001,2019_Mar_21_1406,test_run,3.0.6,59.990786008570126,
20,TTI,TTI_20_tur_150219.wav,,,2,rating_d_initial.csv,d,initial,,,,,0,1,1,1,0,0,0,0,0,3,3,19,,,,,,1,1.054,124,001,2019_Mar_21_1406,test_run,3.0.6,59.990786008570126,
10,TDI,TDI_10_ditt_150219.wav,,,2,rating_d_initial.csv,d,initial,,,,,0,1,1,1,0,0,0,0,0,4,4,9,,,,,,7,1.904,124,001,2019_Mar_21_1406,test_run,3.0.6,59.990786008570126,
7,TDI,TDI_7_den_150219.wav,,,2,rating_d_initial.csv,d,initial,,,,,0,1,1,1,0,0,0,0,0,5,5,6,,,,,,7,1.803,124,001,2019_Mar_21_1406,test_run,3.0.6,59.990786008570126,
25,TTI,TTI_25_taar_150219.wav,,,2,rating_d_initial.csv,d,initial,,,,,0,1,1,1,0,0,0,0,0,6,6,24,,,,,,7,0.954,124,001,2019_Mar_21_1406,test_run,3.0.6,59.990786008570126,
24,TTI,TTI_24_taack_150219.wav,,,2,rating_d_initial.csv,d,initial,,,,,0,1,1,1,0,0,0,0,0,7,7,23,,,,,,1,0.837,124,001,2019_Mar_21_1406,test_run,3.0.6,59.990786008570126,
16,TTI,TTI_16_ton_150219.wav,,,2,rating_d_initial.csv,d,initial,,,,,0,1,1,1,0,0,0,0,0,8,8,15,,,,,,1,2.254,124,001,2019_Mar_21_1406,test_run,3.0.6,59.990786008570126,
14,TDI,TDI_14_dok_150219.wav,,,2,rating_d_initial.csv,d,initial,,,,,0,1,1,1,0,0,0,0,0,9,9,13,,,,,,5,3.237,124,001,2019_Mar_21_1406,test_run,3.0.6,59.990786008570126,
17,TTI,TTI_17_topp_150219.wav,,,2,rating_d_initial.csv,d,initial,,,,,0,1,1,1,0,0,0,0,0,10,10,16,,,,,,1,0.82,124,001,2019_Mar_21_1406,test_run,3.0.6,59.990786008570126,
23,TTI,TTI_23_toa_150219.wav,,,2,rating_d_initial.csv,d,initial,,,,,0,1,1,1,0,0,0,0,0,11,11,22,,,,,,1,2.504,124,001,2019_Mar_21_1406,test_run,3.0.6,59.990786008570126,
5,TDI,TDI_5_dass_150219.wav,,,2,rating_d_initial.csv,d,initial,,,,,0,1,1,1,0,0,0,0,0,12,12,4,,,,,,7,3.622,124,001,2019_Mar_21_1406,test_run,3.0.6,59.990786008570126,
21,TTI,TTI_21_tugg_150219.wav,,,2,rating_d_initial.csv,d,initial,,,,,0,1,1,1,0,0,0,0,0,13,13,20,,,,,,1,1.038,124,001,2019_Mar_21_1406,test_run,3.0.6,59.990786008570126,
8,TDI,TDI_8_dia_150219.wav,,,2,rating_d_initial.csv,d,initial,,,,,0,1,1,1,0,0,0,0,0,14,14,7,,,,,,7,0.871,124,001,2019_Mar_21_1406,test_run,3.0.6,59.990786008570126,
26,TTI,TTI_26_toe_150219.wav,,,2,rating_d_initial.csv,d,initial,,,,,0,1,1,1,0,0,0,0,0,15,15,25,,,,,,1,1.454,124,001,2019_Mar_21_1406,test_run,3.0.6,59.990786008570126,
15,TTI,TTI_15_tom_150219.wav,,,2,rating_d_initial.csv,d,initial,,,,,0,1,1,1,0,0,0,0,0,16,16,14,,,,,,1,0.753,124,001,2019_Mar_21_1406,test_run,3.0.6,59.990786008570126,
18,TTI,TTI_18_tum_150219.wav,,,2,rating_d_initial.csv,d,initial,,,,,0,1,1,1,0,0,0,0,0,17,17,17,,,,,,1,0.421,124,001,2019_Mar_21_1406,test_run,3.0.6,59.990786008570126,
13,TDI,TDI_13_dog_150219.wav,,,2,rating_d_initial.csv,d,initial,,,,,0,1,1,1,0,0,0,0,0,18,18,12,,,,,,7,0.554,124,001,2019_Mar_21_1406,test_run,3.0.6,59.990786008570126,
6,TDI,TDI_6_deg_150219.wav,,,2,rating_d_initial.csv,d,initial,,,,,0,1,1,1,0,0,0,0,0,19,19,5,,,,,,7,0.671,124,001,2019_Mar_21_1406,test_run,3.0.6,59.990786008570126,
19,TTI,TTI_19_tun_150219.wav,,,2,rating_d_initial.csv,d,initial,,,,,0,1,1,1,0,0,0,0,0,20,20,18,,,,,,1,2.287,124,001,2019_Mar_21_1406,test_run,3.0.6,59.990786008570126,
22,TTI,TTI_22_ty_150219.wav,,,2,rating_d_initial.csv,d,initial,,,,,0,1,1,1,0,0,0,0,0,21,21,21,,,,,,1,0.936,124,001,2019_Mar_21_1406,test_run,3.0.6,59.990786008570126,
12,TDI,TDI_12_doa_150219.wav,,,2,rating_d_initial.csv,d,initial,,,,,0,1,1,1,0,0,0,0,0,22,22,11,,,,,,7,1.471,124,001,2019_Mar_21_1406,test_run,3.0.6,59.990786008570126,
27,TTI,TTI_27_toem_150219.wav,,,2,rating_d_initial.csv,d,initial,,,,,0,1,1,1,0,0,0,0,0,23,23,26,,,,,,1,1.22,124,001,2019_Mar_21_1406,test_run,3.0.6,59.990786008570126,
3,TDI,TDI_3_dal_150219.wav,,,2,rating_d_initial.csv,d,initial,,,,,0,1,1,1,0,0,0,0,0,24,24,2,,,,,,7,1.32,124,001,2019_Mar_21_1406,test_run,3.0.6,59.990786008570126,
4,TDI,TDI_4_dam_150219.wav,,,2,rating_d_initial.csv,d,initial,,,,,0,1,1,1,0,0,0,0,0,25,25,3,,,,,,7,0.553,124,001,2019_Mar_21_1406,test_run,3.0.6,59.990786008570126,
1,TDI,TDI_1_dag_150219.wav,,,2,rating_d_initial.csv,d,initial,,,,,0,1,1,1,0,0,0,0,0,26,26,0,,,,,,7,0.504,124,001,2019_Mar_21_1406,test_run,3.0.6,59.990786008570126,
21,TDI,TDI_21_dugg_150219.wav,,,2,rating_t_initial.csv,t,initial,,,,,0,1,1,1,0,1,1,1,0,0,0,20,,,,,,1,6.237,124,001,2019_Mar_21_1406,test_run,3.0.6,59.990786008570126,
5,TTI,TTI_5_tass_150219.wav,,,2,rating_t_initial.csv,t,initial,,,,,0,1,1,1,0,1,1,1,0,1,1,4,,,,,,4,1.803,124,001,2019_Mar_21_1406,test_run,3.0.6,59.990786008570126,
20,TDI,TDI_20_dur_150219.wav,,,2,rating_t_initial.csv,t,initial,,,,,0,1,1,1,0,1,1,1,0,2,2,19,,,,,,1,3.921,124,001,2019_Mar_21_1406,test_run,3.0.6,59.990786008570126,
27,TDI,TDI_27_doem_edit_150219.wav,,,2,rating_t_initial.csv,t,initial,,,,,0,1,1,1,0,1,1,1,0,3,3,26,,,,,,1,0.671,124,001,2019_Mar_21_1406,test_run,3.0.6,59.990786008570126,
18,TDI,TDI_18_dum_150219.wav,,,2,rating_t_initial.csv,t,initial,,,,,0,1,1,1,0,1,1,1,0,4,4,17,,,,,,1,0.404,124,001,2019_Mar_21_1406,test_run,3.0.6,59.990786008570126,
7,TTI,TTI_7_tenn_150219.wav,,,2,rating_t_initial.csv,t,initial,,,,,0,1,1,1,0,1,1,1,0,5,5,6,,,,,,3,5.637,124,001,2019_Mar_21_1406,test_run,3.0.6,59.990786008570126,
9,TTI,TTI_9_till_150219.wav,,,2,rating_t_initial.csv,t,initial,,,,,0,1,1,1,0,1,1,1,0,6,6,8,,,,,,7,0.554,124,001,2019_Mar_21_1406,test_run,3.0.6,59.990786008570126,
26,TDI,TDI_26_doe_150219.wav,,,2,rating_t_initial.csv,t,initial,,,,,0,1,1,1,0,1,1,1,0,7,7,25,,,,,,1,1.104,124,001,2019_Mar_21_1406,test_run,3.0.6,59.990786008570126,
16,TDI,TDI_16_don_150219.wav,,,2,rating_t_initial.csv,t,initial,,,,,0,1,1,1,0,1,1,1,0,8,8,15,,,,,,1,0.504,124,001,2019_Mar_21_1406,test_run,3.0.6,59.990786008570126,
8,TTI,TTI_8_tia_150219.wav,,,2,rating_t_initial.csv,t,initial,,,,,0,1,1,1,0,1,1,1,0,9,9,7,,,,,,7,0.471,124,001,2019_Mar_21_1406,test_run,3.0.6,59.990786008570126,
23,TDI,TDI_23_doa_150219.wav,,,2,rating_t_initial.csv,t,initial,,,,,0,1,1,1,0,1,1,1,0,10,10,22,,,,,,1,1.136,124,001,2019_Mar_21_1406,test_run,3.0.6,59.990786008570126,
15,TDI,TDI_15_dom_150219.wav,,,2,rating_t_initial.csv,t,initial,,,,,0,1,1,1,0,1,1,1,0,11,11,14,,,,,,1,1.554,124,001,2019_Mar_21_1406,test_run,3.0.6,59.990786008570126,
22,TDI,TDI_22_dy_150219.wav,,,2,rating_t_initial.csv,t,initial,,,,,0,1,1,1,0,1,1,1,0,12,12,21,,,,,,1,1.303,124,001,2019_Mar_21_1406,test_run,3.0.6,59.990786008570126,
6,TTI,TTI_6_teg_150219.wav,,,2,rating_t_initial.csv,t,initial,,,,,0,1,1,1,0,1,1,1,0,13,13,5,,,,,,7,1.22,124,001,2019_Mar_21_1406,test_run,3.0.6,59.990786008570126,
17,TDI,TDI_17_dopp_150219.wav,,,2,rating_t_initial.csv,t,initial,,,,,0,1,1,1,0,1,1,1,0,14,14,16,,,,,,1,0.42,124,001,2019_Mar_21_1406,test_run,3.0.6,59.990786008570126,
25,TDI,TDI_25_daar_150219.wav,,,2,rating_t_initial.csv,t,initial,,,,,0,1,1,1,0,1,1,1,0,15,15,24,,,,,,1,0.404,124,001,2019_Mar_21_1406,test_run,3.0.6,59.990786008570126,
2,TTI,TTI_2_tagg_150219.wav,,,2,rating_t_initial.csv,t,initial,,,,,0,1,1,1,0,1,1,1,0,16,16,1,,,,,,6,2.287,124,001,2019_Mar_21_1406,test_run,3.0.6,59.990786008570126,
3,TTI,TTI_3_tal_150219.wav,,,2,rating_t_initial.csv,t,initial,,,,,0,1,1,1,0,1,1,1,0,17,17,2,,,,,,7,2.886,124,001,2019_Mar_21_1406,test_run,3.0.6,59.990786008570126,
14,TTI,TTI_14_tok_150219.wav,,,2,rating_t_initial.csv,t,initial,,,,,0,1,1,1,0,1,1,1,0,18,18,13,,,,,,7,1.704,124,001,2019_Mar_21_1406,test_run,3.0.6,59.990786008570126,
4,TTI,TTI_4_tam_150219.wav,,,2,rating_t_initial.csv,t,initial,,,,,0,1,1,1,0,1,1,1,0,19,19,3,,,,,,7,0.504,124,001,2019_Mar_21_1406,test_run,3.0.6,59.990786008570126,
24,TDI,TDI_24_daack_150219.wav,,,2,rating_t_initial.csv,t,initial,,,,,0,1,1,1,0,1,1,1,0,20,20,23,,,,,,1,0.504,124,001,2019_Mar_21_1406,test_run,3.0.6,59.990786008570126,
11,TTI,TTI_11_tipp_150219.wav,,,2,rating_t_initial.csv,t,initial,,,,,0,1,1,1,0,1,1,1,0,21,21,10,,,,,,7,0.953,124,001,2019_Mar_21_1406,test_run,3.0.6,59.990786008570126,
13,TTI,TTI_13_tog_150219.wav,,,2,rating_t_initial.csv,t,initial,,,,,0,1,1,1,0,1,1,1,0,22,22,12,,,,,,7,0.404,124,001,2019_Mar_21_1406,test_run,3.0.6,59.990786008570126,
10,TTI,TTI_10_titt_150219.wav,,,2,rating_t_initial.csv,t,initial,,,,,0,1,1,1,0,1,1,1,0,23,23,9,,,,,,7,0.438,124,001,2019_Mar_21_1406,test_run,3.0.6,59.990786008570126,
1,TTI,TTI_1_tag_150219.wav,,,2,rating_t_initial.csv,t,initial,,,,,0,1,1,1,0,1,1,1,0,24,24,0,,,,,,7,0.57,124,001,2019_Mar_21_1406,test_run,3.0.6,59.990786008570126,
19,TDI,TDI_19_dun_150219.wav,,,2,rating_t_initial.csv,t,initial,,,,,0,1,1,1,0,1,1,1,0,25,25,18,,,,,,1,0.471,124,001,2019_Mar_21_1406,test_run,3.0.6,59.990786008570126,
12,TTI,TTI_12_toa_150219.wav,,,2,rating_t_initial.csv,t,initial,,,,,0,1,1,1,0,1,1,1,0,26,26,11,,,,,,5,2.088,124,001,2019_Mar_21_1406,test_run,3.0.6,59.990786008570126,
